accX,accY,accZ,gyrX,gyrY,gyrZ,annotation
7.893921852111816,-2.2229323387146,1.852044701576233,-1.397618532180786,-0.4972296357154846,-1.227802872657776,#
7.130610942840576,-1.674975872039795,2.344966173171997,-1.48802387714386,-0.3836120665073395,-1.1911520957946775,#
7.130610942840576,-1.674975872039795,2.344966173171997,-1.5368915796279907,-0.155155211687088,-1.031110167503357,#
6.314659118652344,-1.2969098091125488,2.65842604637146,-1.6040849685668943,-0.0500894747674465,-0.9028322100639344,#
5.764309883117676,-1.1222338676452637,2.67278265953064,-1.7311410903930664,0.1185043603181839,-0.5961868762969971,#
5.292923927307129,-0.973878800868988,2.5363922119140625,-1.8056644201278689,0.2296785563230514,-0.2797680497169494,#
4.953143119812012,-0.5670989155769348,2.244467735290528,-1.815437912940979,0.261442631483078,-0.1258345395326614,#
4.953143119812012,-0.5670989155769348,2.244467735290528,-1.838650107383728,0.2932066619396209,0.1319430023431778,#
4.886143684387207,-0.7752745151519775,2.3545374870300293,-1.8264333009719849,0.2919849753379822,0.3762818872928619,#
5.340780735015869,-1.5409778356552124,2.65842604637146,-1.7653485536575315,0.2541124522686004,0.4935645759105682,#
5.996413230895996,-2.232503652572632,3.225525140762329,-1.5234529972076416,0.1624853760004043,0.660936713218689,#
6.841079711914063,-2.407179594039917,3.1968109607696533,-1.3401988744735718,0.1502684205770492,0.7195780277252197,#
7.764709949493408,-2.304288148880005,3.297309637069702,-0.9345962405204772,0.1453816443681717,0.8050966858863831,#
7.764709949493408,-2.304288148880005,3.297309637069702,-0.5607577562332153,0.123391143977642,0.8283088207244873,#
8.405985832214355,-2.0171494483947754,3.2231321334838867,-0.4056025743484497,0.1417165547609329,0.8246437907218933,#
8.774479866027832,-1.7252250909805298,3.146562099456787,-0.282211422920227,0.1905843466520309,0.785549521446228,#
8.886943817138672,-1.8999011516571045,2.909672498703003,-0.333522617816925,0.2418954968452453,0.7342383861541748,#
8.731410026550293,-2.395215511322021,2.971885919570923,-0.3762818872928619,0.2553341388702392,0.6939224600791931,#
8.731410026550293,-2.395215511322021,2.971885919570923,-0.3848337531089782,0.2699944972991943,0.5888567566871643,#
8.886943817138672,-3.192025184631348,3.2374887466430664,-0.1869192570447921,0.2602209150791168,0.4434750974178314,#
9.183652877807615,-2.945564746856689,3.778266668319702,-0.0219905003905296,0.235787034034729,0.3567348122596741,#
9.501898765563965,-1.3184452056884766,4.484149932861328,0.2370087206363678,0.2284568697214126,0.1490467190742492,#
9.269794464111328,-1.155733346939087,4.622933387756348,0.1099525094032287,0.3127537965774536,0.1148392781615257,#
8.767301559448242,-2.699103832244873,4.405186176300049,-0.5021164417266846,0.4874561131000519,0.1453816443681717,#
8.767301559448242,-2.699103832244873,4.405186176300049,-1.2290246486663818,0.4691306948661804,0.2431172132492065,#
8.592625617980957,-4.658825397491455,3.845265865325928,-1.4122787714004517,0.439810037612915,0.3371876776218414,#
8.537590980529785,-5.422136306762695,2.950350284576416,-1.4049487113952637,0.3408527672290802,0.4337015450000763,#
8.317451477050781,-5.580062389373779,2.155933380126953,-1.3145432472229004,0.3066453039646148,0.3860554695129394,#
8.291130065917969,-5.881557941436768,1.4883356094360352,-1.1838220357894895,0.2773246467113495,0.365286648273468,#
8.291130065917969,-5.881557941436768,1.4883356094360352,-1.0103412866592407,0.1417165547609329,0.3787252902984619,#
8.331808090209961,-6.33380126953125,1.0456634759902954,-0.8759549260139465,0.0794101431965828,0.3799469769001007,#
7.862814903259277,-6.116055011749268,0.5790630578994751,-0.5925218462944031,0.0085518611595034,0.3591781854629516,#
7.587640762329102,-5.843273162841797,0.4019941985607147,-0.2492256760597229,-0.0280989725142717,0.3225273489952087,#
7.791030406951904,-6.142375946044922,0.5790630578994751,-0.1197260618209838,-0.0794101431965828,0.2932066619396209,#
8.185846328735352,-6.501298904418945,0.7896314859390259,0.0904053896665573,-0.258999228477478,0.2064663618803024,#
8.185846328735352,-6.501298904418945,0.7896314859390259,0.3408527672290802,-0.3872771561145782,0.0977355539798736,#
8.554340362548828,-6.2500529289245605,1.3136597871780396,0.4642439186573028,-0.4239279925823211,0.0183254163712263,#
8.930014610290527,-5.982056617736816,1.588834285736084,0.6682668924331665,-0.4471401870250702,-0.1343863904476165,#
8.614161491394043,-5.252245903015137,1.8065810203552248,0.730573296546936,-0.4410317242145538,-0.1795890927314758,#
8.657232284545898,-4.974678039550781,2.7278177738189697,0.7183563709259033,-0.3310791850090027,-0.2260134816169738,#
8.657232284545898,-4.974678039550781,2.7278177738189697,0.7061393857002258,-0.1539334952831268,-0.152711808681488,#
9.501898765563965,-6.070591449737549,4.730610370635986,0.7134696245193481,-0.0574196390807628,-0.0659715011715889,#
10.784451484680176,-6.807580471038818,5.606383323669434,0.5961868762969971,0.2748812437057495,0.152711808681488,#
12.035898208618164,-7.051648139953613,5.828916072845459,-0.1698155403137207,0.8405258059501648,0.4898994863033294,#
13.416556358337402,-7.223931312561035,5.785844802856445,-0.5974085927009583,1.147171139717102,0.6707102656364441,#
13.416556358337402,-7.223931312561035,5.785844802856445,-1.3573025465011597,1.8056644201278689,1.0201148986816406,#
14.261221885681152,-7.963313579559326,6.814758777618408,-1.6077499389648438,2.6070961952209477,1.3157649040222168,#
14.148760795593262,-8.367700576782227,6.927221298217773,-1.9950270652771,3.0908870697021484,1.483137130737305,#
13.036097526550291,-8.96112060546875,7.317252159118652,-2.5179123878479004,3.977837085723877,1.90339994430542,#
12.126825332641602,-9.93978500366211,6.62333345413208,-2.6938364505767822,4.350454330444336,2.1245267391204834,#
11.454442024230955,-9.588040351867676,5.43170690536499,-2.8880856037139893,4.95152759552002,2.502030372619629,#
11.454442024230955,-9.588040351867676,5.43170690536499,-2.846548318862915,5.226408958435059,2.848991632461548,#
10.482955932617188,-8.994620323181152,5.615954875946045,-2.685284376144409,5.293601989746094,2.9748260974884038,#
9.413363456726074,-9.461220741271973,6.068198204040527,-2.1257483959198,5.530611038208008,3.1983959674835205,#
8.650053977966309,-9.753145217895508,5.388636112213135,-1.5222313404083252,5.603912353515625,3.3694334030151367,#
7.8795647621154785,-8.568697929382324,4.613362312316895,-1.268118977546692,5.577034950256348,3.4598388671875,#
7.8795647621154785,-8.568697929382324,4.613362312316895,-0.7550071477890015,5.685766220092773,3.4903812408447266,#
6.20219612121582,-6.829115867614746,3.3068809509277344,-0.5851916074752808,5.721195220947266,3.3767635822296143,#
3.783052444458008,-6.860222339630127,2.0673987865448,-0.3762818872928619,5.602690696716309,3.1348679065704346,#
1.6773687601089478,-7.286144733428955,1.0671988725662231,-0.3701734542846679,5.40233325958252,2.9296233654022217,#
1.0049854516983032,-7.733603000640869,-0.1818545311689376,-0.4178195297718048,5.222743988037109,2.8477697372436523,#
1.2083754539489746,-7.992027282714844,-1.0480562448501587,-0.5167768001556396,4.626556873321533,2.673067569732666,#
1.2083754539489746,-7.992027282714844,-1.0480562448501587,-0.6132906079292297,3.9705071449279785,2.5215773582458496,#
0.9499505758285522,-6.896114826202393,-2.723031997680664,-0.7562289237976074,3.698069095611572,2.5215773582458496,#
0.2225324809551239,-5.66620397567749,-4.295116424560547,-0.7403469085693359,3.13608980178833,2.4751532077789307,#
-0.3110669553279876,-4.955535888671875,-4.287938117980957,-0.5900784730911255,2.5728886127471924,2.2173755168914795,#
-0.7704889178276062,-4.902893543243408,-3.122633695602417,-0.5204418301582336,2.299229145050049,2.062220335006714,#
-0.7704889178276062,-4.902893543243408,-3.122633695602417,-0.3286358118057251,1.7506881952285769,1.7506881952285769,#
-1.057627558708191,-4.845465660095215,-2.1583259105682373,-0.1624853760004043,1.5087926387786863,1.605306625366211,#
-1.37587308883667,-4.426721572875977,-3.290131092071533,0.4495835602283478,1.1251806020736694,1.3023263216018677,#
-2.172683000564575,-4.25922441482544,-4.426721572875977,0.926044464111328,0.7782194018363953,1.012784719467163,#
-2.8833510875701904,-4.761716842651367,-4.220939159393311,1.0054545402526855,0.6084038615226746,0.8674030900001526,#
-3.4097721576690674,-5.218745708465576,-3.7016968727111816,1.066539287567139,0.261442631483078,0.5913001298904419,#
-3.4097721576690674,-5.218745708465576,-3.7016968727111816,1.0909732580184937,0.0219905003905296,0.3176405727863312,#
-3.94097900390625,-4.551148891448975,-3.397808313369751,1.099524974822998,-0.0769667476415634,0.1942494213581085,#
-4.484149932861328,-4.498506546020508,-3.479164123535156,0.9248227477073668,-0.2907632887363434,0.0244338884949684,#
-4.874179840087891,-6.235695838928223,-3.187239646911621,0.707361102104187,-0.4214845895767212,-0.0097735561430454,#
-5.414957523345947,-7.207180976867676,-3.6059837341308594,0.0708582773804664,-0.684148907661438,-0.0525328628718853,#
-5.414957523345947,-7.207180976867676,-3.6059837341308594,-0.577861487865448,-0.9480348825454712,-0.0904053896665573,#
-5.546562671661377,-7.161717891693115,-4.797609329223633,-0.8539644479751587,-1.0482138395309448,-0.1062874197959899,#
-4.642076015472412,-7.951349258422852,-6.285945415496826,-1.4342693090438845,-1.3255385160446167,-0.1795890927314758,#
-3.187239646911621,-10.52363395690918,-8.707481384277344,-2.1220834255218506,-1.7213674783706665,-0.2626643180847168,left
-2.603391170501709,-12.215359687805176,-12.705887794494627,-2.5130257606506348,-1.9412726163864136,-0.3042019307613373,left
-2.603391170501709,-12.215359687805176,-12.705887794494627,-3.404862403869629,-2.4262852668762207,-0.3506263196468353,left
-2.076970100402832,-13.189238548278809,-16.979469299316406,-3.922861099243164,-2.7695813179016118,-0.3946073353290558,left
-0.1842473447322845,-14.30907917022705,-22.602602005004883,-5.287493705749512,-3.7677059173583984,-0.4727957546710968,left
3.69930362701416,-17.699708938598633,-23.71765899658203,-6.916012287139893,-5.261837959289551,-0.5876350998878479,left
11.050054550170898,-21.937397003173828,-20.09971046447754,-7.099266529083252,-6.259962558746338,-0.8881718516349792,left
18.32423591613769,-24.514467239379883,-13.495519638061523,-6.576381206512451,-8.534757614135742,-1.4098354578018188,left
18.32423591613769,-24.514467239379883,-13.495519638061523,-5.688209533691406,-10.292776107788086,-1.7958909273147583,left
21.001806259155277,-23.30609130859375,-9.54496955871582,-5.354686737060547,-11.112533569335938,-2.1562907695770264,left
22.05943298339844,-24.30150604248047,-6.616154670715332,-5.586809158325195,-11.957944869995115,-2.2320358753204346,left
20.573490142822266,-25.074386596679688,-12.969098091125488,-5.501290321350098,-12.166855812072754,-1.770235300064087,left
22.971097946166992,-26.756540298461918,-6.491727352142334,-5.129895210266113,-11.99581813812256,-1.3230950832366943,left
22.971097946166992,-26.756540298461918,-6.491727352142334,-4.808589458465576,-12.192510604858398,0.21135313808918,left
23.198415756225582,-29.460432052612305,1.0504491329193115,-4.677868366241455,-11.778356552124023,0.4691306948661804,left
18.731016159057617,-24.189043045043945,6.003591537475586,-3.253372430801392,-9.652607917785645,0.7342383861541748,left
15.220744132995604,-19.008583068847656,6.5180487632751465,-2.26990818977356,-7.392473220825195,0.7623373866081238,left
15.136996269226074,-15.144174575805664,5.383851051330566,-1.9290555715560915,-6.781626224517822,0.8893935680389404,left
14.194223403930664,-13.60080337524414,4.8813581466674805,-1.6676130294799805,-6.123132705688477,0.9089407324790956,left
14.194223403930664,-13.60080337524414,4.8813581466674805,-1.5320048332214355,-5.084692478179932,0.7757760286331177,left
11.313264846801758,-13.12702465057373,5.235496044158936,-1.3096565008163452,-4.455520153045654,0.6255075931549072,left
8.171488761901855,-11.526226997375488,5.620740413665772,-0.6621583700180054,-3.250929117202759,0.3726168274879455,left
4.589433670043945,-9.449256896972656,4.6061835289001465,0.0464243926107883,-2.2137105464935303,0.1612636744976043,left
1.373480200767517,-8.276773452758789,3.1250264644622803,0.3054236173629761,-1.7372496128082275,0.0586413368582725,left
1.373480200767517,-8.276773452758789,3.1250264644622803,0.7623373866081238,-0.966360330581665,-0.0940704718232154,left
-1.0049854516983032,-7.17368221282959,2.407179594039917,0.8722898364067078,-0.6743753552436829,-0.1637070626020431,left
-2.7421746253967285,-5.912664413452148,1.9094725847244265,0.8478559851646423,-0.3078669905662536,-0.2773246467113495,left
-4.019941806793213,-6.340980052947998,1.4763716459274292,0.448361873626709,-0.0647498071193695,-0.2956500649452209,#
-4.469792366027832,-7.508677005767822,1.239482045173645,0.2296785563230514,-0.0439810007810592,-0.3029802441596985,#
-4.469792366027832,-7.508677005767822,1.239482045173645,-0.0940704718232154,-0.1356080919504165,-0.2272351831197738,#
-4.701896190643311,-8.657232284545898,0.6939185857772827,-0.1136175915598869,-0.1771456897258758,-0.2076880484819412,#
-4.620540142059326,-9.23390293121338,0.6939185857772827,-0.0574196390807628,-0.1331647038459777,-0.1710372269153595,#
-4.515256404876709,-8.927621841430664,-0.2512463629245758,0.1148392781615257,-0.0513111688196659,-0.1197260618209838,#
-4.555934429168701,-8.365307807922363,-0.2009970992803573,0.1820324808359146,-0.0305423624813556,-0.1319430023431778,#
-4.591826438903809,-8.891729354858398,-0.1674975752830505,0.2028012871742248,-0.0109952501952648,-0.1514901220798492,#
-4.591826438903809,-8.891729354858398,-0.1674975752830505,0.1343863904476165,-0.0342074446380138,-0.1893626451492309,#
-3.7232320308685294,-9.726823806762695,0.1746760606765747,0.0757450610399246,-0.0904053896665573,-0.1661504507064819,#
-2.959921598434448,-9.937392234802246,0.5479563474655151,0.0610847249627113,-0.2089097648859024,-0.1185043603181839,#
-3.230310440063477,-9.616753578186035,0.430708110332489,0.0390942245721817,-0.1185043603181839,-0.1246128380298614,#
-2.833101987838745,-9.150154113769531,0.3541377484798431,0.0329857505857944,-0.0598630309104919,-0.1466033309698104,#
-2.833101987838745,-9.150154113769531,0.3541377484798431,0.040315918624401,-0.0561979450285434,-0.1221694499254226,#
-2.53399920463562,-8.71944522857666,0.6771688461303711,0.0439810007810592,-0.0561979450285434,-0.100178949534893,#
-3.2518460750579834,-9.121439933776855,0.8925228118896484,0.0183254163712263,0.0122169442474842,-0.069636583328247,#
-3.797409296035767,-9.631111145019531,1.1150553226470947,0.0464243926107883,0.1050657257437706,-0.0794101431965828,#
-3.838087558746338,-8.980262756347656,1.1892328262329102,0.1331647038459777,0.1148392781615257,-0.0904053896665573,#
-4.567898273468018,-9.03290557861328,0.8901299238204956,0.1966928243637085,0.1588202863931656,-0.1050657257437706,#
-4.567898273468018,-9.03290557861328,0.8901299238204956,0.1844758540391922,0.2504473626613617,-0.1612636744976043,#
-5.304887294769287,-9.300901412963867,0.4761717021465301,0.1856975704431533,0.2944283783435821,-0.1893626451492309,#
-5.577669143676758,-9.370293617248535,0.2416750937700271,0.2406738102436065,0.3408527672290802,-0.2199050188064575,#
-5.675775527954102,-9.355937004089355,0.1579262912273407,0.2809897363185882,0.3261924386024475,-0.2235700935125351,#
-5.8097734451293945,-9.430113792419434,0.3828516006469726,0.2736595571041107,0.3078669905662536,-0.2186833024024963,#
-5.8097734451293945,-9.430113792419434,0.3828516006469726,0.2174616158008575,0.2797680497169494,-0.2309002727270126,#
-5.862415313720703,-9.595218658447266,0.5240281224250793,0.1930277347564697,0.2528907656669616,-0.2431172132492065,#
-5.400600433349609,-9.269794464111328,0.6699903011322021,0.2162399291992187,0.155155211687088,-0.1966928243637085,#
-5.37188720703125,-8.793622970581055,0.6125625967979431,0.2382304221391677,0.0757450610399246,-0.1429382413625717,#
-5.245067596435547,-8.810372352600098,0.8901299238204956,0.235787034034729,0.0525328628718853,-0.128277912735939,#
-4.785645484924316,-9.083154678344728,1.239482045173645,0.2174616158008575,-0.0415376126766204,-0.0818535313010215,#
-4.785645484924316,-9.083154678344728,1.239482045173645,0.2150182276964187,-0.1441599577665329,-0.0109952501952648,#
-4.527220726013184,-8.96112060546875,1.5433706045150757,0.2333436459302902,-0.1820324808359146,0.0122169442474842,#
-4.898108005523682,-8.913264274597168,1.6390833854675293,0.258999228477478,-0.200357899069786,0.0268772784620523,#
-5.051248073577881,-8.987441062927246,1.56251323223114,0.2858764827251434,-0.1954711079597473,0.0207688063383102,#
-4.716253280639648,-8.791230201721191,1.4691929817199707,0.3530696928501129,-0.2162399291992187,0.0354291386902332,#
-4.716253280639648,-8.791230201721191,1.4691929817199707,0.4605787992477417,-0.2382304221391677,0.0842969194054603,#
-4.587040901184082,-8.389235496520996,1.5481561422348022,0.4789042472839355,-0.2162399291992187,0.1062874197959899,#
-4.498506546020508,-8.307880401611328,1.2610174417495728,0.3310791850090027,-0.1319430023431778,0.1111741960048675,#
-3.806980848312378,-8.793622970581055,1.0863415002822876,0.0684148892760276,-0.1099525094032287,0.0928487852215766,#
-3.268595933914185,-8.896513938903809,1.2873386144638062,-0.0610847249627113,-0.128277912735939,0.1038440242409706,#
-3.268595933914185,-8.896513938903809,1.2873386144638062,-0.2150182276964187,-0.130721315741539,0.0940704718232154,#
-2.971885919570923,-9.226724624633787,1.584048628807068,-0.2247917801141739,-0.1075091138482093,0.0769667476415634,#
-2.775674343109131,-9.15493869781494,1.9142580032348635,-0.199136197566986,-0.1050657257437706,0.0855186134576797,#
-2.4335007667541504,-8.956335067749023,1.8999011516571045,-0.0916270837187767,-0.0916270837187767,0.0867403075098991,#
-2.026720762252808,-8.872586250305176,2.2133607864379883,-0.0354291386902332,-0.069636583328247,0.0830752253532409,#
-1.7539390325546265,-9.20040225982666,2.579463005065918,0.0293206684291362,0.0012216945178806,0.0757450610399246,#
-1.7539390325546265,-9.20040225982666,2.579463005065918,0.1343863904476165,0.1050657257437706,0.0280989725142717,#
-1.5864413976669312,-9.176474571228027,3.060420036315918,0.1673721522092819,0.1856975704431533,-0.0244338884949684,#
-1.0552347898483276,-8.803194999694824,3.6251261234283447,0.152711808681488,0.4092676639556885,-0.0842969194054603,#
-0.0669990330934524,-9.190832138061523,4.192224979400635,0.152711808681488,0.5754181146621704,-0.0989572554826736,#
0.916451096534729,-9.934999465942385,4.67078971862793,-0.0549762547016143,0.6560499668121338,-0.1087308079004287,#
0.916451096534729,-9.934999465942385,4.67078971862793,0.0134386392310261,0.9333745837211608,-0.1563768982887268,#
1.6247265338897705,-10.399208068847656,5.570490837097168,0.0952921733260154,1.1141853332519531,-0.2089097648859024,#
2.682354211807251,-11.0835542678833,6.812366485595703,0.3225273489952087,1.5515520572662354,-0.2907632887363434,#
4.816751956939697,-12.605388641357422,8.74337387084961,0.5705313086509705,1.9901403188705444,-0.2919849753379822,#
8.054241180419922,-15.493526458740234,10.411171913146973,0.7501204013824463,2.224705696105957,-0.2394521236419677,right
12.21775245666504,-17.448461532592773,10.329815864562988,1.4391560554504397,2.71460509300232,-0.1441599577665329,right
12.21775245666504,-17.448461532592773,10.329815864562988,2.392077684402466,3.398754119873047,-0.1246128380298614,right
16.424333572387695,-16.03908920288086,9.738788604736328,2.75003433227539,3.781144380569458,-0.2382304221391677,right
20.176279067993164,-18.11127471923828,9.332008361816406,3.527031898498535,4.982069969177246,-0.786771297454834,right
22.451852798461918,-22.171894073486328,6.075376510620117,4.274709224700928,6.591041564941406,-1.2632319927215576,right
21.49711799621582,-23.80379867553711,1.1437692642211914,4.73162317276001,7.391251564025879,-1.492910623550415,right
21.49711799621582,-23.80379867553711,1.1437692642211914,5.964312076568604,9.013662338256836,-2.200271844863892,right
20.496919631958008,-25.03849601745605,-2.998206615447998,6.818277359008789,9.675820350646973,-2.643746852874756,right
22.942380905151367,-25.35195541381836,-3.259024381637573,7.513421058654785,10.594533920288086,-3.500154733657837,right
30.300312042236328,-27.66581344604492,2.1367905139923096,6.041279315948486,11.970162391662598,-4.018153190612793,right
24.95953369140625,-28.747371673583984,-6.618547439575195,4.031591892242432,13.452077865600586,-3.5942251682281494,right
24.220149993896484,-35.31327819824219,-17.568103790283203,-0.130721315741539,13.750170707702637,-1.2717839479446411,right
24.220149993896484,-35.31327819824219,-17.568103790283203,-0.0842969194054603,11.878535270690918,1.408613681793213,right
16.237693786621094,-23.346769332885746,-25.828128814697266,1.288887619972229,11.154069900512695,2.114753007888794,right
10.009177207946776,-15.919448852539062,-24.490541458129883,3.558796167373657,9.882286071777344,2.343209981918335,right
6.98704195022583,-16.354942321777344,-23.330018997192383,3.789696216583252,8.981898307800293,2.2723517417907715,right
4.118047714233398,-14.115260124206545,-24.641286849975582,3.99616265296936,7.03451681137085,2.263799905776977,right
4.118047714233398,-14.115260124206545,-24.641286849975582,4.743839740753174,5.357130527496338,1.931498885154724,right
0.4666004180908203,-8.358129501342773,-25.32563591003418,4.933202266693115,4.677868366241455,1.7213674783706665,right
-3.206382274627685,-5.632704257965088,-22.38724899291992,4.472623348236084,3.4354047775268555,1.4073920249938965,right
-5.800201892852783,-5.881557941436768,-17.903099060058594,3.3743200302124023,2.1538474559783936,0.9920158982276917,right
-5.92223596572876,-5.857630252838135,-13.359129905700684,2.8416614532470703,1.4574815034866333,0.8380824327468872,right
-5.92223596572876,-5.857630252838135,-13.359129905700684,2.205158472061157,0.3359659910202026,0.6462763547897339,right
-6.321837425231934,-5.099104881286621,-10.22931671142578,2.0414514541625977,-0.3176405727863312,0.5363238453865051,right
-6.75493860244751,-4.323830604553223,-7.7455668449401855,1.935163974761963,-0.5241069197654724,0.4874561131000519,right
-7.1641106605529785,-4.35972261428833,-5.747560024261475,1.3292036056518557,-0.7769976854324341,0.3848337531089782,right
-7.042076587677002,-5.412564754486084,-3.1106693744659424,0.929709494113922,-0.8942803740501404,0.3298574984073639,#
-7.077969074249268,-6.001199245452881,-0.9284151792526244,0.2040229737758636,-1.0201148986816406,0.2040229737758636,#
-7.077969074249268,-6.001199245452881,-0.9284151792526244,-0.2211267054080963,-0.9785772562026978,0.0891837030649185,#
-7.477570533752441,-5.972485065460205,-0.1268195956945419,-0.3042019307613373,-0.8881718516349792,0.0488677769899368,#
-7.786244869232178,-5.615954875946045,-0.4235295951366424,-0.4275930821895599,-0.6719319820404053,-0.0061084721237421,#
-7.642674922943115,-6.0538411140441895,-0.0861416235566139,-0.5949652194976807,-0.5668662190437317,-0.0207688063383102,#
-7.506284713745117,-7.144968032836914,0.605384111404419,-0.6719319820404053,-0.5375455617904663,-0.0268772784620523,#
-7.506284713745117,-7.144968032836914,0.605384111404419,-0.7024743556976318,-0.494786262512207,-0.0916270837187767,#
-7.41535758972168,-7.2813591957092285,0.9284151792526244,-0.6768187284469604,-0.4422534108161926,-0.0928487852215766,#
-7.496713638305664,-7.042076587677002,0.7824530005455017,-0.5729747414588928,-0.342074453830719,-0.0684148892760276,#
-7.534998416900635,-7.140182495117188,0.5455635190010071,-0.5167768001556396,-0.3408527672290802,-0.0561979450285434,#
-7.338787078857422,-7.549355506896973,1.1485549211502075,-0.5082249045372009,-0.3677300214767456,-0.0549762547016143,#
-7.020541667938232,-7.829315185546875,1.4524433612823486,-0.4324798583984375,-0.4850127100944519,-0.069636583328247,#
-7.020541667938232,-7.829315185546875,1.4524433612823486,-0.2809897363185882,-0.6108472347259521,-0.0635281130671501,#
-7.008577823638916,-7.836494445800781,1.0839486122131348,-0.2150182276964187,-0.6633800864219666,-0.0390942245721817,#
-7.23589563369751,-7.422535419464111,0.8877372145652771,-0.129499614238739,-0.7317950129508972,-0.0024433890357613,#
-6.905685901641846,-7.341179370880127,0.9308080077171326,-0.1368297785520553,-0.8515210747718811,0.0439810007810592,#
-6.379265785217285,-7.946564197540283,0.552742063999176,-0.1881409436464309,-0.9174925684928894,0.0769667476415634,#
-6.379265785217285,-7.946564197540283,0.552742063999176,-0.3261924386024475,-1.035996913909912,0.1319430023431778,#
-5.61116886138916,-8.547162055969238,-0.6819544434547424,-0.393385648727417,-1.087308049201965,0.1612636744976043,#
-4.752145767211914,-8.408378601074219,-1.4213367700576782,-0.6365028619766235,-1.2351330518722534,0.2235700935125351,#
-4.225724697113037,-8.84626579284668,-1.9094725847244265,-0.8991671204566956,-1.4721418619155884,0.1893626451492309,#
-4.316651821136475,-9.71485996246338,-3.428915023803711,-0.9626952409744264,-1.6236319541931152,0.1392731666564941,#
-4.316651821136475,-9.71485996246338,-3.428915023803711,-1.2717839479446411,-1.998692274093628,0.1319430023431778,#
-4.122833251953125,-10.00439167022705,-4.7952165603637695,-1.9217253923416135,-2.615647792816162,0.1966928243637085,#
-3.704089403152466,-10.17188835144043,-5.362315654754639,-2.1880548000335693,-2.9845995903015137,0.2015795856714248,#
-2.878565788269043,-10.083355903625488,-5.350350856781006,-2.5765538215637207,-3.8092432022094727,0.2675510942935943,#
-2.943171739578247,-9.846465110778809,-4.7952165603637695,-2.747591018676758,-4.629000663757324,0.2748812437057495,#
-3.881158351898194,-9.284152030944824,-4.855037212371826,-2.675510883331299,-4.980848789215088,0.2174616158008575,#
-3.881158351898194,-9.284152030944824,-4.855037212371826,-2.779355049133301,-5.492738246917725,0.1979145109653473,#
-4.060619831085205,-7.393822193145752,-4.575077056884766,-3.169075489044189,-5.754181385040283,0.2052446752786636,#
-2.912065029144287,-7.867600917816162,-2.5842485427856445,-4.029148578643799,-6.398014068603516,0.1136175915598869,#
-1.794616937637329,-11.33958625793457,-1.550549030303955,-4.47750997543335,-7.014969825744629,-0.0989572554826736,#
-1.3112668991088867,-11.148160934448242,-4.321437358856201,-4.5349297523498535,-7.1359171867370605,-0.1356080919504165,#
-1.3112668991088867,-11.148160934448242,-4.321437358856201,-4.561807155609131,-7.176233291625977,-0.1600419729948043,#
-0.0047856452874839,-7.987241268157959,-5.838487148284912,-4.622891902923584,-7.270304203033447,-0.1722589135169983,#
3.206382274627685,-11.988040924072266,-0.9475577473640442,-4.975961685180664,-7.502425670623779,0.0879620015621185,#
4.07258415222168,-20.71705818176269,-0.028713870793581,-4.664429664611816,-7.634368896484375,0.21135313808918,#
3.2829525470733643,-18.74058723449707,-0.8303093910217285,-4.559363842010498,-7.216548919677734,0.3371876776218414,#
1.8376877307891848,-16.687543869018555,0.7585247755050659,-3.728611469268799,-6.362584590911865,0.0256555844098329,#
1.8376877307891848,-16.687543869018555,0.7585247755050659,-2.56067156791687,-5.7786149978637695,-0.1637070626020431,#
1.921436548233032,-18.166309356689453,2.8809585571289062,-1.9889185428619385,-5.629568099975586,0.0769667476415634,#
2.0673987865448,-15.519847869873049,3.046063184738159,-1.446486234664917,-5.329031467437744,0.5949652194976807,#
1.8927226066589355,-12.588640213012695,2.5914268493652344,-1.1496145725250244,-4.734066009521484,0.8002098798751831,#
1.7012970447540283,-12.105289459228516,1.9669002294540403,-1.1703832149505615,-4.472623348236084,0.9223793148994446,#
1.7012970447540283,-12.105289459228516,1.9669002294540403,-1.414722204208374,-4.013266086578369,1.0396620035171509,#
1.9525433778762815,-13.44766330718994,1.8783657550811768,-1.5112361907958984,-3.808021783828736,1.0763128995895386,#
2.2396819591522217,-12.906885147094728,1.3519448041915894,-1.4073920249938965,-3.5331404209136963,1.0347752571105957,#
1.8376877307891848,-11.121840476989746,0.9834501147270204,-1.1752701997756958,-3.199617862701416,0.9455915093421936,#
1.430907964706421,-10.40877914428711,0.8039883971214294,-1.0054545402526855,-3.0078117847442627,0.8344173431396484,#
1.741974949836731,-9.954142570495604,1.031306505203247,-0.7232431173324585,-2.702388048171997,0.6988092660903931,#
1.741974949836731,-9.954142570495604,1.031306505203247,-0.8661814332008362,-2.42995023727417,0.7036960124969482,#
1.5720844268798828,-9.851251602172852,1.447657585144043,-0.8979454636573792,-2.3041157722473145,0.652384877204895,#
0.9571290016174316,-9.966106414794922,1.5792629718780518,-0.8747332096099854,-1.9608196020126345,0.5033381581306458,#
0.8566305041313171,-10.124032974243164,1.124626636505127,-0.8490777015686035,-1.8007776737213137,0.4691306948661804,#
1.1629117727279663,-10.109675407409668,1.2969098091125488,-0.8209787011146545,-1.5368915796279907,0.4752391576766968,#
1.1629117727279663,-10.109675407409668,1.2969098091125488,-0.6939224600791931,-1.2852225303649902,0.4825693070888519,#
0.9332008361816406,-9.645467758178713,1.947757601737976,-0.5729747414588928,-1.109298586845398,0.463022232055664,#
0.2321037948131561,-9.475577354431152,2.5914268493652344,-0.2321219593286514,-0.7000309228897095,0.3848337531089782,#
0.5240281224250793,-8.800802230834961,3.058027505874634,0.1038440242409706,-0.3750602006912231,0.3408527672290802,#
1.146162033081055,-7.94177770614624,3.168097257614136,0.2162399291992187,-0.2309002727270126,0.333522617816925,#
1.146162033081055,-7.94177770614624,3.168097257614136,0.3261924386024475,0.0586413368582725,0.2785463333129883,#
1.2323036193847656,-7.932207107543945,3.7016968727111816,0.256555825471878,0.4092676639556885,0.1869192570447921,#
0.2847459018230438,-8.786444664001465,4.055834770202637,0.2785463333129883,0.6536065340042114,0.1014006435871124,#
-0.236889436841011,-8.824729919433594,4.366901397705078,0.4337015450000763,1.1520578861236572,-0.0916270837187767,#
0.4522434771060943,-8.248059272766113,4.342973232269287,0.5448757410049438,1.353637456893921,-0.178367406129837,#
1.706082463264465,-7.566104888916016,4.4027934074401855,0.6914790868759155,1.6883817911148071,-0.3176405727863312,#
1.706082463264465,-7.566104888916016,4.4027934074401855,0.5693095922470093,2.0377864837646484,-0.42270627617836,right
3.1728827953338623,-7.52303409576416,4.2376885414123535,0.5057815313339233,2.2198188304901123,-0.499673068523407,right
4.960320949554443,-7.841279983520508,5.127819538116455,0.3799469769001007,2.592435598373413,-0.6291726231575012,right
7.185646057128906,-9.68375301361084,6.314659118652344,0.4666872918605804,3.088443756103516,-0.7134696245193481,right
10.16231918334961,-11.461621284484863,7.219145774841309,0.5986303091049194,3.335226058959961,-0.7684457898139954,right
10.16231918334961,-11.461621284484863,7.219145774841309,0.9174925684928894,3.974172353744507,-0.8380824327468872,right
13.423734664916992,-14.510075569152832,7.98963451385498,1.1850436925888062,4.376109600067139,-0.9162708520889282,right
16.409976959228516,-17.503498077392578,8.796016693115234,2.0463383197784424,5.373012542724609,-1.187487006187439,right
18.97269058227539,-17.76192283630371,7.39142894744873,3.0945520401000977,6.509188175201416,-1.5662122964859009,right
21.54258155822754,-20.338991165161133,4.386044025421143,3.3486645221710205,7.099266529083252,-1.751909852027893,right
22.88016891479492,-24.93082046508789,1.1940184831619265,3.766484022140503,8.281867027282715,-1.9840317964553835,right
22.88016891479492,-24.93082046508789,1.1940184831619265,4.405430316925049,9.637947082519531,-2.3615353107452397,right
23.710479736328125,-23.825334548950195,2.2205395698547363,4.682754993438721,10.401506423950195,-2.568001747131348,right
27.168107986450195,-25.93341064453125,-3.445664882659912,4.598458290100098,11.855323791503906,-2.765916347503662,right
25.502704620361328,-25.53620147705078,-8.831908226013184,3.020028591156006,13.401988983154297,-2.2833471298217773,right
19.855642318725582,-25.37827491760254,-15.818949699401855,1.4306042194366455,13.941977500915527,-1.494132399559021,right
19.855642318725582,-25.37827491760254,-15.818949699401855,-0.8319739699363708,12.700736045837402,0.1649287492036819,right
15.84048557281494,-27.907489776611328,-19.08754539489746,-0.471574068069458,11.64152717590332,0.8441908955574036,right
13.007384300231934,-20.94437599182129,-20.42991828918457,1.665169596672058,9.525551795959473,1.90339994430542,right
9.89432144165039,-15.809378623962402,-24.624536514282227,3.000481605529785,7.873820781707764,2.233257532119751,right
5.417350769042969,-12.65324592590332,-26.981468200683597,3.491602897644043,7.066280841827393,2.2210404872894287,right
0.5503491759300232,-9.580862045288086,-24.457040786743164,4.1904120445251465,5.723639011383057,1.910730242729187,right
0.5503491759300232,-9.580862045288086,-24.457040786743164,3.726168155670166,4.517826557159424,1.4415994882583618,right
-2.6081764698028564,-6.702296257019043,-19.755142211914062,3.2448205947875977,3.948516607284546,1.4159438610076904,right
-3.9840497970581055,-5.529813289642334,-14.495719909667969,2.583883762359619,2.389634370803833,1.2766708135604858,right
-4.022334575653076,-5.094319343566895,-10.600205421447754,2.317554235458374,1.6676130294799805,1.1520578861236572,right
-5.079962730407715,-5.142175674438477,-7.429713726043701,1.7409145832061768,0.4373666048049927,0.9724688529968262,#
-5.079962730407715,-5.142175674438477,-7.429713726043701,1.3670761585235596,-0.129499614238739,0.7745543122291565,#
-6.508477687835693,-5.307280540466309,-5.08953332901001,1.2155860662460327,-0.287098228931427,0.6377245187759399,#
-6.62333345413208,-5.824130058288574,-2.524427890777588,0.7721109390258789,-0.5363238453865051,0.4752391576766968,#
-5.778666496276856,-5.91505765914917,0.0382851622998714,0.416597843170166,-0.6560499668121338,0.3677300214767456,#
-5.912664413452148,-6.470191955566406,1.306481122970581,0.2638860046863556,-0.6426112651824951,0.3249707520008087,#
-5.912664413452148,-6.470191955566406,1.306481122970581,0.0904053896665573,-0.4508052766323089,0.2089097648859024,#
-6.491727352142334,-7.032505512237549,1.1150553226470947,0.0048867780715227,-0.3274141252040863,0.1649287492036819,#
-6.766902446746826,-7.29093074798584,0.7776673436164856,-0.1649287492036819,-0.1038440242409706,0.129499614238739,#
-6.817151546478272,-7.41535758972168,0.9212367534637452,-0.2418954968452453,0.0635281130671501,0.1062874197959899,#
-6.671189785003662,-7.192824840545654,1.6271194219589231,-0.2431172132492065,0.1429382413625717,0.0867403075098991,#
-6.63051176071167,-7.322037220001221,1.7204395532608032,-0.2638860046863556,0.2333436459302902,0.0513111688196659,#
-6.63051176071167,-7.322037220001221,1.7204395532608032,-0.2895416021347046,0.2663294076919555,0.0256555844098329,#
-6.625725746154785,-7.537391662597656,1.308874011039734,-0.3066453039646148,0.2651077210903168,0.0232121963053941,#
-6.67836856842041,-7.637890338897705,0.9332008361816406,-0.3151971697807312,0.2101314514875412,0.0122169442474842,#
-6.613761901855469,-7.487142086029053,0.7561319470405579,-0.2638860046863556,0.0842969194054603,-0.0195471122860908,#
-6.211767196655273,-7.527820110321045,0.9619146585464478,-0.2174616158008575,0.0146603342145681,-0.040315918624401,#
-6.211767196655273,-7.527820110321045,0.9619146585464478,-0.1014006435871124,-0.1246128380298614,-0.0891837030649185,#
-6.003591537475586,-7.867600917816162,1.3351951837539673,-0.0427593067288398,-0.1747023165225982,-0.1062874197959899,#
-5.974878311157227,-7.9585280418396,1.5074783563613892,-0.0012216945178806,-0.2504473626613617,-0.1209477484226226,#
-5.989234924316406,-8.193024635314941,1.3136597871780396,-0.0085518611595034,-0.2761029601097107,-0.1209477484226226,#
-5.821736812591553,-8.233702659606934,1.4524433612823486,-0.0256555844098329,-0.2785463333129883,-0.1209477484226226,#
-5.572883605957031,-8.405985832214355,1.765903115272522,-0.0806318372488021,-0.2736595571041107,-0.1087308079004287,#
-5.572883605957031,-8.405985832214355,1.765903115272522,-0.1160609796643257,-0.2675510942935943,-0.1075091138482093,#
-5.544170379638672,-8.336593627929688,1.722832441329956,-0.1209477484226226,-0.2382304221391677,-0.1050657257437706,#
-5.807380676269531,-8.226524353027344,1.497907042503357,-0.1404948681592941,-0.1795890927314758,-0.0671931952238082,#
-5.654239654541016,-8.367700576782227,1.6390833854675293,-0.1930277347564697,-0.1637070626020431,-0.0195471122860908,#
-5.680561065673828,-8.34855842590332,1.6893328428268433,-0.2162399291992187,-0.1673721522092819,-0.0085518611595034,#
-5.680561065673828,-8.34855842590332,1.6893328428268433,-0.2125748395919799,-0.1429382413625717,-0.003665083553642,#
-5.66620397567749,-8.204988479614258,1.7180466651916504,-0.1820324808359146,-0.129499614238739,-0.0048867780715227,#
-5.625525951385498,-8.303093910217285,1.852044701576233,-0.1453816443681717,-0.1404948681592941,0.0024433890357613,#
-5.55852746963501,-8.307880401611328,1.7371891736984253,-0.1172826737165451,-0.1588202863931656,0.0024433890357613,#
-5.498706817626953,-8.365307807922363,1.2179466485977173,-0.1221694499254226,-0.1747023165225982,0.0085518611595034,#
-5.383851051330566,-8.461020469665527,1.495514154434204,-0.1747023165225982,-0.2284568697214126,0.031764056533575,#
-5.383851051330566,-8.461020469665527,1.495514154434204,-0.2101314514875412,-0.2748812437057495,0.0305423624813556,#
-5.158926010131836,-8.394021987915039,1.730010747909546,-0.1808107793331146,-0.287098228931427,0.0158820282667875,#
-5.046462535858154,-8.465806007385254,1.954936146736145,-0.1136175915598869,-0.3017585575580597,0.0085518611595034,#
-5.213961124420166,-8.482556343078613,2.2133607864379883,-0.0855186134576797,-0.3054236173629761,0.0085518611595034,#
-5.484349250793457,-8.212166786193848,1.8161523342132568,-0.0610847249627113,-0.2895416021347046,0.0171037223190069,#
-5.484349250793457,-8.212166786193848,1.8161523342132568,-0.0500894747674465,-0.2785463333129883,0.0378725305199623,#
-5.438885688781738,-8.216952323913574,1.871187210083008,-0.0415376126766204,-0.2748812437057495,0.0574196390807628,#
-5.307280540466309,-8.286344528198242,2.225324869155884,-0.0293206684291362,-0.2773246467113495,0.0610847249627113,#
-5.436492443084717,-8.176274299621582,2.5292134284973145,-0.0366508327424526,-0.2406738102436065,0.0610847249627113,#
-5.594419479370117,-8.126025199890137,2.376072883605957,-0.0293206684291362,-0.2174616158008575,0.0488677769899368,#
-5.594419479370117,-8.126025199890137,2.376072883605957,-0.0024433890357613,-0.1771456897258758,0.0305423624813556,#
-5.740381240844727,-8.02791976928711,2.1056838035583496,0.0048867780715227,-0.1673721522092819,0.0244338884949684,#
-5.697310447692871,-8.12123966217041,2.0027925968170166,0.0146603342145681,-0.1685938388109207,0.0158820282667875,#
-5.72123908996582,-7.925028324127197,2.589033842086792,0.0733016654849052,-0.1490467190742492,-0.003665083553642,#
-5.584848403930664,-7.843672752380371,2.7732813358306885,0.1343863904476165,-0.1380514800548553,-0.0244338884949684,#
-5.546562671661377,-8.011170387268066,2.6560330390930176,0.21135313808918,-0.0867403075098991,-0.0293206684291362,#
-5.546562671661377,-8.011170387268066,2.6560330390930176,0.2467822879552841,-0.0342074446380138,-0.0293206684291362,#
-5.642275810241699,-8.212166786193848,2.414358139038086,0.256555825471878,-0.0146603342145681,-0.0354291386902332,#
-5.460421085357666,-8.365307807922363,2.2013967037200928,0.200357899069786,0.0122169442474842,-0.0305423624813556,#
-5.26181697845459,-8.25284481048584,1.8831514120101929,0.0610847249627113,0.0146603342145681,-0.040315918624401,#
-5.218745708465576,-7.987241268157959,1.6462620496749878,0.0024433890357613,0.0109952501952648,-0.0452026948332786,#
-5.218745708465576,-7.987241268157959,1.6462620496749878,-0.130721315741539,-0.0171037223190069,-0.0525328628718853,#
-5.115854740142822,-7.817351341247559,1.3040882349014282,-0.2064663618803024,-0.0488677769899368,-0.0598630309104919,#
-4.584648132324219,-8.685946464538574,1.4787644147872925,-0.2076880484819412,-0.1148392781615257,-0.1026223376393318,#
-4.362115383148193,-10.571491241455078,1.1820544004440308,1.035996913909912,-0.0708582773804664,-0.3432961404323578,#
-3.99362063407898,-9.28175926208496,-0.380458801984787,1.7604618072509766,-0.2638860046863556,-0.4080459475517273,#
-4.790431022644043,-7.190432548522949,-1.1676974296569824,3.0969953536987305,-0.5522059202194214,-0.4520269632339477,#
-4.790431022644043,-7.190432548522949,-1.1676974296569824,3.457395553588867,-0.891836941242218,-0.5607577562332153,#
-4.998606204986572,-5.9198431968688965,-0.8063812851905823,3.334004163742065,-1.1215155124664309,-0.5045598149299622,#
-3.869194030761719,-5.625525951385498,-0.3996013700962066,2.702388048171997,-1.7531315088272097,-0.3457395434379577,#
-2.991028308868408,-6.240481376647949,-0.2656033039093017,2.006022453308105,-2.363978862762451,-0.2223483920097351,#
-2.2396819591522217,-6.262016773223877,-0.1220339611172676,1.714037299156189,-2.643746852874756,-0.1905843466520309,#
-2.2396819591522217,-6.262016773223877,-0.1220339611172676,1.2180293798446655,-3.138533115386963,-0.2125748395919799,#
-1.5720844268798828,-4.565505504608154,-0.1842473447322845,0.9553651213645936,-3.364546537399292,-0.2418954968452453,#
-0.7585247755050659,-2.100898265838623,-0.3780659735202789,-0.0109952501952648,-3.8947620391845694,-0.2883199155330658,#
0.6149553656578064,-0.7393822073936462,-0.6532405614852905,-1.7567967176437378,-4.4017653465271,-0.3274141252040863,#
2.2229323387146,-2.0099709033966064,-0.4977070987224579,-2.4372804164886475,-4.668094635009766,-0.4654656052589416,#
2.2229323387146,-2.0099709033966064,-0.4977070987224579,-3.56123948097229,-4.883112907409668,-0.9321528673171996,#
3.893122434616089,-4.206582069396973,-0.2488535493612289,-4.41520357131958,-4.781712532043457,-1.51734459400177,#
5.632704257965088,-5.675775527954102,-1.6007983684539795,-4.856235504150391,-4.694972038269043,-1.7824522256851196,#
7.022934436798096,-7.030113220214844,-1.7371891736984253,-6.224533081054688,-4.355340957641602,-2.2955639362335205,#
8.398807525634766,-10.84427261352539,1.722832441329956,-6.694885730743408,-4.095119953155518,-2.6022093296051025,#
7.570890426635742,-14.780465126037598,1.146162033081055,-7.272747039794922,-3.4146358966827397,-2.9699392318725586,#
7.570890426635742,-14.780465126037598,1.146162033081055,-7.1933369636535645,-2.26990818977356,-2.993151426315308,#
4.522434711456299,-14.151152610778809,-3.5341989994049072,-7.240983486175537,-1.4843589067459106,-2.9833779335021973,#
3.73758864402771,-11.787044525146484,-8.33898639678955,-7.542741775512695,-0.4556920528411865,-3.0102550983428955,#
6.711867332458496,-15.235101699829102,-7.484748840332031,-8.19879150390625,-0.0305423624813556,-2.592435598373413,#
7.932207107543945,-16.53679847717285,-7.690531730651855,-8.410144805908203,0.0268772784620523,-2.499586820602417,#
7.932207107543945,-16.53679847717285,-7.690531730651855,-7.719887733459473,0.471574068069458,-2.1685078144073486,#
5.546562671661377,-13.179667472839355,-9.339186668395996,-6.770630836486816,0.8002098798751831,-2.0817673206329346,#
4.426721572875977,-11.44965648651123,-7.666603565216064,-4.333350658416748,0.8564078211784363,-2.0231261253356934,#
4.520041942596436,-9.96371364593506,-5.065605640411377,-2.302894115447998,0.6499415040016174,-1.987696886062622,#
4.551148891448975,-9.176474571228027,-3.783052444458008,-1.58942449092865,0.6132906079292297,-1.982810139656067,#
4.242474555969238,-8.764908790588379,-3.747160196304321,-0.5118899941444397,0.6255075931549072,-2.040229797363281,#
4.242474555969238,-8.764908790588379,-3.747160196304321,-0.3127537965774536,0.7769976854324341,-2.030456304550171,#
3.960121393203736,-9.568897247314451,-3.483949899673462,-0.3213056325912475,0.8588511943817139,-2.030456304550171,#
3.6394832134246826,-8.499305725097656,-4.194617748260498,-0.4129327237606048,1.119072198867798,-1.8899613618850708,#
3.5700912475585938,-8.791230201721191,-6.446264266967773,-0.4056025743484497,1.4477078914642334,-1.6859383583068848,#
3.5365920066833496,-11.590832710266112,-9.698110580444336,-0.310310423374176,1.5772075653076172,-1.612636685371399,#
3.5365920066833496,-11.590832710266112,-9.698110580444336,-0.1673721522092819,1.6871600151062012,-1.446486234664917,#
3.649054527282715,-14.725430488586426,-13.313664436340332,-0.178367406129837,1.6602827310562134,-1.3084348440170288,up
3.9840497970581055,-15.24945831298828,-16.689937591552734,-0.5949652194976807,1.494132399559021,-0.8234220743179321,up
4.618147850036621,-15.278172492980955,-17.92463493347168,-1.2302463054656982,1.087308049201965,-0.0195471122860908,up
5.900700569152832,-16.744972229003906,-22.09292984008789,-1.3194299936294556,0.8002098798751831,0.3494046330451965,up
7.3052873611450195,-20.02553367614746,-28.34298324584961,-1.054322361946106,0.0427593067288398,1.100746750831604,up
7.3052873611450195,-20.02553367614746,-28.34298324584961,-1.099524974822998,-1.0372185707092283,1.8899613618850708,up
7.377072334289551,-22.35853576660156,-31.039695739746094,-1.5356699228286743,-1.6199668645858765,2.2784602642059326,up
10.439885139465332,-22.66720962524414,-33.98286819458008,-2.537459373474121,-2.75003433227539,2.954057216644287,up
16.180265426635742,-24.787248611450195,-37.646278381347656,-2.465379476547241,-3.960733652114868,3.334004163742065,up
24.380468368530277,-24.95713996887207,-40.73062515258789,-2.22714900970459,-4.6473259925842285,3.481829166412353,up
24.380468368530277,-24.95713996887207,-40.73062515258789,-1.910730242729187,-6.195212841033936,3.998605966567993,up
32.939598083496094,-24.91407012939453,-41.91507339477539,-1.9363857507705688,-7.016191482543945,4.340680599212647,up
37.77309799194336,-23.629121780395508,-38.83072662353516,-2.051224946975708,-9.028322219848633,4.68641996383667,up
37.98366928100586,-21.705293655395508,-33.88715362548828,-1.7567967176437378,-10.914618492126465,4.8354668617248535,up
37.41896057128906,-19.30290031433105,-32.331817626953125,-1.240019917488098,-11.636639595031738,4.779268741607666,up
37.41896057128906,-19.30290031433105,-32.331817626953125,0.0122169442474842,-12.626213073730469,4.894108295440674,up
39.38346862792969,-16.632511138916016,-30.13759994506836,0.5485408306121826,-12.963400840759276,5.030938148498535,up
42.04428863525391,-12.63649559020996,-26.22055053710937,1.641957402229309,-13.295701026916504,5.228852272033691,up
43.456050872802734,-7.63310432434082,-20.193029403686523,2.398186445236206,-13.327465057373049,5.307040691375732,up
36.50490188598633,-4.610969543457031,-12.514461517333984,2.71460509300232,-13.183304786682127,5.253286361694336,up
31.798219680786133,-0.8039883971214294,-6.372087001800537,3.330339193344116,-12.25970458984375,4.897773265838623,up
31.798219680786133,-0.8039883971214294,-6.372087001800537,4.455520153045654,-11.309226036071776,4.603344917297363,up
26.79482650756836,4.88853645324707,-5.702096462249756,4.553255558013916,-10.516345977783203,4.449411392211914,up
23.41377067565918,10.05703353881836,-4.036691665649414,4.283260822296143,-8.449238777160645,4.279595851898193,up
22.368106842041016,15.306886672973633,2.775674343109131,3.661418199539185,-7.264195442199707,3.6296544075012207,up
18.221343994140625,16.969898223876953,7.255037784576416,3.184957504272461,-6.587376594543457,3.1898443698883057,up
18.221343994140625,16.969898223876953,7.255037784576416,2.3248846530914307,-4.784155368804932,2.326106309890747,up
14.744573593139648,17.910276412963867,9.535398483276367,2.090319395065308,-3.979058980941773,1.8533105850219729,up
11.540583610534668,18.05384635925293,9.20279598236084,1.9938054084777832,-2.7561426162719727,0.9187142252922058,up
8.420342445373535,18.297914505004883,9.31765079498291,1.7848955392837524,-1.7238109111785889,0.0757450610399246,up
5.077569961547852,16.515260696411133,8.889336585998535,1.5979763269424438,-1.2180293798446655,-0.3213056325912475,up
2.313859462738037,13.205986976623535,8.673982620239258,1.1141853332519531,-0.2907632887363434,-1.022558331489563,up
2.313859462738037,13.205986976623535,8.673982620239258,0.546097457408905,0.3445178270339966,-1.539335012435913,#
-0.1339980661869049,10.368099212646484,8.307880401611328,0.3274141252040863,0.5375455617904663,-1.6761648654937744,#
-2.550748825073242,8.915657043457031,8.372486114501953,0.0598630309104919,0.7733326554298401,-1.6712781190872192,#
-4.522434711456299,6.247659683227539,8.042276382446289,-0.1075091138482093,0.9969027042388916,-1.51734459400177,#
-5.383851051330566,5.14456844329834,7.501499176025391,-0.1343863904476165,0.9761338829994202,-1.456259846687317,#
-5.383851051330566,5.14456844329834,7.501499176025391,-0.2162399291992187,0.9003888368606567,-1.220472812652588,#
-5.364708423614502,5.027320384979248,7.29810905456543,-0.2296785563230514,0.8771765828132629,-1.0909732580184937,#
-5.587240695953369,4.012763977050781,6.9344000816345215,-0.3811686933040619,0.8490777015686035,-0.9077189564704896,#
-6.254837989807129,3.5916268825531006,6.702296257019043,-0.4288147687911987,0.8674030900001526,-0.7562289237976074,#
-6.340980052947998,3.2781667709350586,6.482156753540039,-0.4104893505573272,0.8661814332008362,-0.6670452356338501,#
-6.340980052947998,3.2781667709350586,6.482156753540039,-0.2528907656669616,0.891836941242218,-0.4886777997016907,#
-5.974878311157227,2.895315170288086,6.508477687835693,-0.2675510942935943,0.8417474627494812,-0.3616215586662292,#
-5.697310447692871,2.935993194580078,6.388835906982422,-0.3506263196468353,0.8197570443153381,-0.3029802441596985,#
-6.116055011749268,2.9623143672943115,6.259624004364014,-0.4312581717967987,0.8441908955574036,-0.1893626451492309,#
-6.0538411140441895,3.2518460750579834,5.931807041168213,-0.439810037612915,0.8698464632034302,-0.1392731666564941,#
-6.209374904632568,3.0484561920166016,5.807380676269531,-0.3775035738945007,0.8429691791534424,-0.0952921733260154,#
-6.209374904632568,3.0484561920166016,5.807380676269531,-0.3090887069702148,0.790436327457428,-0.1209477484226226,#
-6.2189459800720215,2.878565788269043,5.651846885681152,-0.2748812437057495,0.767224133014679,-0.1136175915598869,#
-6.104090690612793,3.1824538707733154,5.266602516174316,-0.2699944972991943,0.7488986849784851,-0.1062874197959899,#
-6.589833736419678,3.1441688537597656,5.2115678787231445,-0.2834331095218658,0.7342383861541748,-0.1673721522092819,#
-6.812366485595703,2.9551358222961426,5.594419479370117,-0.3042019307613373,0.7525637745857239,-0.1734806150197982,#
-6.812366485595703,2.9551358222961426,5.594419479370117,-0.3494046330451965,0.7513421177864075,-0.1893626451492309,#
-6.7692952156066895,3.079562902450561,5.606383323669434,-0.3274141252040863,0.7330166697502136,-0.2040229737758636,#
-6.302694320678711,2.687139749526977,5.304887294769287,-0.3750602006912231,0.7562289237976074,-0.2272351831197738,#
-6.419942855834961,2.8522443771362305,4.9363932609558105,-0.42270627617836,0.7317950129508972,-0.2699944972991943,#
-6.02512788772583,2.857030153274536,4.744967460632324,-0.3994940817356109,0.7684457898139954,-0.2919849753379822,#
-5.69013261795044,2.770888566970825,4.622933387756348,-0.3432961404323578,0.7757760286331177,-0.3518480062484741,#
-5.69013261795044,2.770888566970825,4.622933387756348,-0.2883199155330658,0.8087617754936218,-0.4031591713428497,#
-5.103890895843506,2.849851608276367,4.371686935424805,-0.2761029601097107,0.813648521900177,-0.4446967840194702,#
-3.7016968727111816,2.359323024749756,3.929014682769776,-0.3115321099758148,0.8002098798751831,-0.574196457862854,#
-2.4047868251800537,2.2851457595825195,3.716053485870361,-0.2809897363185882,0.7379034161567688,-0.7452336549758911,#
-2.1439690589904785,2.4670000076293945,3.2135608196258545,-0.2150182276964187,0.7317950129508972,-0.8551861643791199,#
-2.1439690589904785,2.4670000076293945,3.2135608196258545,-0.003665083553642,0.7965447902679443,-1.0897514820098877,#
-2.555534601211548,2.63449764251709,2.538784980773926,0.0842969194054603,0.8466342687606812,-1.2058125734329224,#
-2.6009981632232666,2.3401806354522705,1.648654818534851,0.1624853760004043,0.9150491952896118,-1.437934398651123,#
-1.8759729862213133,1.954936146736145,1.244267821311951,0.1588202863931656,0.9003888368606567,-1.7103723287582395,#
-1.0552347898483276,2.124826431274414,1.0695916414260864,0.21135313808918,0.9162708520889282,-1.8508671522140503,#
-0.7752745151519775,2.7828526496887207,0.6580261588096619,0.333522617816925,0.9932376146316528,-2.1966066360473637,#
-0.7752745151519775,2.7828526496887207,0.6580261588096619,0.2553341388702392,1.2082558870315552,-2.5350160598754883,#
-1.6917256116867063,2.809173583984375,0.3661018908023834,0.1832541674375534,1.3194299936294556,-2.7463691234588623,#
-1.648654818534851,2.258824586868286,-0.1770688742399215,0.0122169442474842,1.705485463142395,-3.158080101013184,#
0.2392822504043579,0.8901299238204956,-0.1531406491994857,-0.0439810007810592,1.8337633609771729,-3.3889806270599365,#
1.938186287879944,0.0215354058891534,-0.8327022790908813,0.152711808681488,1.8423151969909668,-3.9472949504852295,#
1.938186287879944,0.0215354058891534,-0.8327022790908813,0.5558710098266602,2.03412127494812,-4.478732109069824,#
1.3902300596237185,0.9523434042930604,-1.722832441329956,0.5680879354476929,2.3016724586486816,-4.727957725524902,#
-0.7393822073936462,0.1651047617197036,-2.469392776489258,0.1502684205770492,3.0078117847442627,-5.482964992523193,#
0.117248311638832,-3.672982692718506,-3.464807271957397,-0.445918470621109,3.341334342956543,-6.394349098205566,#
3.8668015003204346,-7.692924976348877,-4.78803825378418,-0.6939224600791931,3.1947312355041504,-6.803616523742676,#
3.8668015003204346,-7.692924976348877,-4.78803825378418,-1.5906461477279663,2.868538618087769,-7.368039608001709,#
6.240481376647949,-9.889535903930664,-6.269195556640625,-3.2069480419158936,3.5111501216888428,-7.264195442199707,#
4.59421968460083,-11.186446189880373,-5.168497085571289,-3.8226819038391113,4.054803848266602,-7.32528018951416,#
3.728017807006836,-13.409377098083496,-4.90528678894043,-3.9069788455963135,5.035824775695801,-7.811514854431152,#
7.688138484954834,-18.13998794555664,-7.970492362976074,-3.404862403869629,5.178762912750244,-7.821288108825684,#
11.413763999938965,-21.35354995727539,-9.511469841003418,-2.632751703262329,4.857457160949707,-7.20433235168457,#
11.413763999938965,-21.35354995727539,-9.511469841003418,-2.255248069763184,4.852570533752441,-6.489641189575195,#
11.475976943969728,-18.101703643798828,-10.463812828063965,-1.6920467615127563,5.162880897521973,-6.356476306915283,#
12.413965225219728,-14.45743465423584,-9.738788604736328,-1.0628741979599,5.48418664932251,-6.225755214691162,#
13.935799598693848,-14.979069709777832,-8.772088050842285,-1.1777135133743286,5.21297025680542,-5.936213493347168,#
15.75434398651123,-16.134803771972656,-9.276973724365234,-1.1935955286026,5.129895210266113,-5.743185997009277,#
15.75434398651123,-16.134803771972656,-9.276973724365234,-0.6548282504081726,5.079805374145508,-5.210526943206787,#
17.769100189208984,-15.280564308166504,-10.325029373168944,-0.1918060332536697,4.997951984405518,-5.114012718200684,#
19.245473861694336,-14.873785018920898,-9.74835968017578,0.2504473626613617,4.622891902923584,-4.9832916259765625,#
17.5011043548584,-14.249258041381836,-8.827122688293457,0.2944283783435821,4.4103169441223145,-4.737730979919434,#
15.215959548950195,-12.835101127624512,-8.181060791015625,0.2211267054080963,4.402987003326416,-4.531264781951904,#
13.916656494140623,-11.430513381958008,-8.147561073303223,0.003665083553642,4.150096416473389,-3.9729504585266113,#
13.916656494140623,-11.430513381958008,-8.147561073303223,-0.2834331095218658,3.523366928100586,-3.330339193344116,#
12.335000991821287,-11.073983192443848,-7.688138484954834,-0.4740174412727356,3.191066026687622,-3.0102550983428955,#
10.875378608703612,-9.958927154541016,-6.2189459800720215,-0.901610553264618,2.55089807510376,-2.4177334308624268,#
10.6504545211792,-7.908278465270996,-4.520041942596436,-1.115407109260559,1.918060302734375,-1.9290555715560915,#
10.55474090576172,-8.444271087646484,-4.603790760040283,-1.0970816612243652,1.6566176414489746,-1.7372496128082275,#
10.55474090576172,-8.444271087646484,-4.603790760040283,-1.0506572723388672,1.1838220357894895,-1.4660333395004272,#
9.377471923828123,-9.20279598236084,-4.869394302368164,-1.0335536003112793,1.0555440187454224,-1.3340904712677002,#
8.059026718139648,-8.539983749389648,-5.213961124420166,-0.8429691791534424,0.9468132257461548,-1.141062617301941,#
7.506284713745117,-7.724031925201416,-5.32403039932251,-0.4984513521194458,0.7892146706581116,-0.943148136138916,#
7.405786037445068,-7.432106971740723,-4.752145767211914,-0.4618005454540252,0.6914790868759155,-0.8026533126831055,#
7.70249605178833,-7.113861560821533,-4.522434711456299,-0.3787252902984619,0.4874561131000519,-0.6401678919792175,#
7.70249605178833,-7.113861560821533,-4.522434711456299,-0.2431172132492065,0.3494046330451965,-0.4190412163734436,#
7.869993209838867,-6.64486837387085,-4.529613494873047,-0.1918060332536697,0.2651077210903168,-0.3066453039646148,#
7.891529560089111,-6.532405853271484,-3.976871252059937,-0.1111741960048675,0.1050657257437706,-0.1026223376393318,#
8.219346046447754,-7.302894115447998,-4.041477203369141,-0.0427593067288398,-0.0012216945178806,-0.0171037223190069,#
8.444271087646484,-7.412964344024658,-4.524827480316162,0.1722589135169983,-0.2089097648859024,0.1588202863931656,#
8.444271087646484,-7.412964344024658,-4.524827480316162,0.3310791850090027,-0.3701734542846679,0.3261924386024475,#
8.38444995880127,-7.197610855102539,-5.709274768829346,0.2956500649452209,-0.3994940817356109,0.4300364553928375,#
9.822537422180176,-9.674181938171388,-7.7455668449401855,0.0366508327424526,-0.4813476204872131,0.5937435030937195,#
11.775079727172852,-10.925628662109377,-10.272387504577637,-0.155155211687088,-0.6548282504081726,0.8099834322929382,#
12.495319366455078,-11.83011531829834,-12.870993614196776,-0.3445178270339966,-0.6878139972686768,1.0017894506454468,#
12.495319366455078,-11.83011531829834,-12.870993614196776,-1.227802872657776,-0.63283771276474,1.321873426437378,up
12.119646072387695,-16.76889991760254,-16.500904083251953,-1.557660460472107,-0.7061393857002258,1.3841798305511477,up
14.555541038513184,-22.485353469848636,-18.429519653320312,-1.593089580535889,-1.1349540948867798,1.5759859085083008,up
21.37030029296875,-23.49751853942871,-21.2171573638916,-1.8423151969909668,-2.082988977432251,2.203936815261841,up
26.18226623535156,-25.074386596679688,-22.449460983276367,-1.962041258811951,-2.715826749801636,2.6132044792175293,up
32.413177490234375,-28.187450408935547,-21.987646102905277,-1.9168386459350584,-3.925304412841797,3.2729194164276123,up
32.413177490234375,-28.187450408935547,-21.987646102905277,-1.3035480976104736,-5.384007453918457,3.9179742336273193,up
36.59104537963867,-25.74677085876465,-22.528425216674805,-1.2510151863098145,-6.005849838256836,4.235614776611328,up
40.072601318359375,-26.67997360229492,-20.73859405517578,-1.8557538986206052,-7.273968696594238,4.8647871017456055,up
42.35774993896485,-26.37608528137207,-18.32423591613769,-2.536237955093384,-8.481002807617188,5.272833347320557,up
43.64030075073242,-22.76531410217285,-19.75753593444824,-2.6828410625457764,-9.057642936706545,5.452422618865967,up
43.64030075073242,-22.76531410217285,-19.75753593444824,-2.6913931369781494,-10.042328834533691,5.80793571472168,up
45.872802734375,-20.365312576293945,-20.836700439453125,-2.715826749801636,-10.560327529907228,6.020510196685791,up
49.162933349609375,-19.183259963989254,-21.93021774291992,-2.597322702407837,-11.483927726745604,6.321047306060791,up
53.1780891418457,-15.66820240020752,-20.97787475585937,-2.3212194442749023,-12.291468620300291,6.606923580169678,up
51.531829833984375,-10.918450355529783,-17.620744705200195,-1.9486026763916016,-12.686075210571287,6.630136013031006,up
47.3037109375,-6.439085483551025,-10.7437744140625,-0.4569137394428253,-13.228507995605469,6.428556442260742,up
47.3037109375,-6.439085483551025,-10.7437744140625,0.9846857786178588,-13.504611015319824,5.9667558670043945,up
39.96013641357422,-2.297109842300415,-2.4502503871917725,1.5882028341293335,-13.591351509094238,5.772506237030029,up
34.006797790527344,0.4761717021465301,-6.6831536293029785,2.6681809425354004,-12.745938301086426,5.633233070373535,up
31.04448127746582,7.408178806304932,-2.6009981632232666,3.316900491714477,-10.28788948059082,5.767619609832764,up
27.866811752319336,11.416156768798828,10.451848983764648,2.785463571548462,-9.207911491394045,5.719973564147949,up
27.866811752319336,11.416156768798828,10.451848983764648,1.4110571146011353,-7.690566539764404,4.927093982696533,up
21.66461563110352,14.196616172790527,15.043676376342772,1.2620103359222412,-6.752305507659912,4.462850093841553,up
16.149158477783203,15.426527976989746,16.41954803466797,1.3658545017242432,-4.820806503295898,3.638206243515015,up
11.662616729736328,16.036697387695312,14.043476104736328,1.480693817138672,-3.307126998901367,2.625421524047852,up
7.520641803741455,17.024932861328125,12.014362335205078,1.3182083368301392,-2.6681809425354004,2.1257483959198,up
7.520641803741455,17.024932861328125,12.014362335205078,0.9590301513671876,-1.446486234664917,0.9529216885566713,up
3.35713005065918,15.02453327178955,10.937592506408691,0.4056025743484497,-0.3005368411540985,-0.0354291386902332,up
0.1818545311689376,10.217352867126465,9.851251602172852,0.130721315741539,0.1356080919504165,-0.4593571126461029,up
-1.8161523342132568,6.262016773223877,9.260223388671877,-0.0830752253532409,0.4410317242145538,-0.9321528673171996,up
-3.1800613403320312,4.256831645965576,9.30329418182373,-0.1123958900570869,0.4007157981395721,-1.0396620035171509,up
-4.278366565704346,4.053441524505615,8.154739379882812,-0.175924003124237,0.1881409436464309,-1.1031900644302368,up
-4.278366565704346,4.053441524505615,8.154739379882812,0.1637070626020431,0.1478250324726104,-0.9358179569244384,up
-5.376672744750977,4.981856822967529,6.9511494636535645,0.3665083348751068,0.2504473626613617,-0.8307521939277649,up
-5.879165172576904,5.094319343566895,6.714260101318359,0.5717529654502869,0.3396310806274414,-0.7183563709259033,up
-5.697310447692871,4.225724697113037,7.066005229949951,0.2040229737758636,0.3432961404323578,-0.6145123243331909,#
-5.735595226287842,3.45045018196106,7.496713638305664,-0.0134386392310261,0.3359659910202026,-0.5644228458404541,#
-5.735595226287842,3.45045018196106,7.496713638305664,-0.3029802441596985,0.3775035738945007,-0.4593571126461029,#
-6.314659118652344,3.036492109298706,7.2335028648376465,-0.3078669905662536,0.4471401870250702,-0.4190412163734436,#
-6.649653911590576,2.7804601192474365,6.546762466430664,-0.2162399291992187,0.5399889945983887,-0.4031591713428497,#
-6.503692150115967,2.65842604637146,6.204589366912842,-0.1637070626020431,0.5424323678016663,-0.3762818872928619,#
-6.2500529289245605,2.651247262954712,6.20219612121582,-0.1600419729948043,0.5473191142082214,-0.3616215586662292,#
-6.16391134262085,2.47896409034729,6.396015167236328,-0.100178949534893,0.5961868762969971,-0.310310423374176,#
-6.16391134262085,2.47896409034729,6.396015167236328,-0.1197260618209838,0.6462763547897339,-0.2638860046863556,#
-6.10169792175293,2.3306093215942383,6.312265872955322,-0.1270562261343002,0.6792621612548828,-0.2211267054080963,#
-6.130411148071289,2.3569302558898926,5.931807041168213,-0.0891837030649185,0.7537854909896851,-0.1881409436464309,#
-5.467599868774414,2.337787628173828,5.606383323669434,-0.0586413368582725,0.7782194018363953,-0.2052446752786636,#
-4.139583110809326,2.038684844970703,5.412564754486084,-0.0842969194054603,0.7782194018363953,-0.2064663618803024,#
-4.139583110809326,2.038684844970703,5.412564754486084,-0.0733016654849052,0.7831061482429504,-0.2724378705024719,#
-3.3164520263671875,2.093719720840454,4.955535888671875,-0.040315918624401,0.7965447902679443,-0.3213056325912475,#
-3.689732551574707,2.167897224426269,5.041677951812744,0.1197260618209838,0.9211575984954834,-0.42270627617836,#
-3.4241292476654053,2.2683956623077397,5.472385883331299,0.3603998720645904,1.0958600044250488,-0.53143709897995,#
-2.335394859313965,2.5986053943634038,5.084747791290283,0.4679089784622192,1.1080769300460815,-0.6181774139404297,#
-1.2801601886749268,3.270988702774048,4.677968502044678,0.6316159963607788,1.119072198867798,-0.8991671204566956,#
-1.2801601886749268,3.270988702774048,4.677968502044678,0.7171346545219421,1.2229161262512207,-1.2192511558532717,#
-0.5886343717575073,3.8596229553222656,3.804587841033936,0.8173136115074158,1.3243167400360107,-1.40617036819458,#
-0.3661018908023834,3.957728624343872,2.737389087677002,0.9871291518211364,1.5515520572662354,-1.847202181816101,#
-0.902094066143036,3.802195072174072,1.5649060010910034,1.0408836603164673,1.799556016921997,-2.32854962348938,#
-0.969093143939972,2.553141593933105,0.8087739944458008,1.0506572723388672,1.9571545124053955,-2.5875487327575684,#
-0.969093143939972,2.553141593933105,0.8087739944458008,1.2632319927215576,2.2137105464935303,-3.083556890487671,#
-0.4235295951366424,0.8470591902732849,-0.1363908797502517,1.4660333395004272,2.230814218521118,-3.404862403869629,#
0.4881358444690704,-0.4953142702579498,-1.5649060010910034,1.977923393249512,2.250361204147339,-4.114666938781738,#
0.5742774605751038,0.0167497582733631,-3.2135608196258545,2.1856114864349365,2.340766429901123,-4.672981262207031,#
-0.7513462901115417,0.0478564500808715,-3.488735675811768,1.9547111988067627,2.438502311706543,-4.884335041046143,#
-0.7513462901115417,0.0478564500808715,-3.488735675811768,1.368297815322876,2.872203826904297,-5.412106513977051,#
-0.4211367666721344,-3.146562099456787,-3.833301782608032,1.1215155124664309,2.9442837238311768,-6.09259033203125,#
1.6103696823120115,-6.922436237335205,-3.720839262008667,0.6474980711936951,2.3871910572052,-6.360141754150391,#
3.077169895172119,-9.272188186645508,-5.221138954162598,-0.0598630309104919,1.858197331428528,-6.670452117919922,#
2.8666017055511475,-8.135597229003906,-4.654040336608887,-0.4703523814678192,1.9046216011047363,-6.754748821258545,#
1.9669002294540403,-9.489934921264648,-4.761716842651367,-1.392731785774231,2.629086494445801,-6.919677734375,#
1.9669002294540403,-9.489934921264648,-4.761716842651367,-1.4733635187149048,3.2216084003448486,-7.357044219970703,#
2.09850549697876,-13.624732971191406,-4.175475597381592,-1.2522368431091309,3.1751840114593506,-7.496316909790039,#
3.34995174407959,-18.21416664123535,-2.75174617767334,-1.123958945274353,2.9259581565856934,-7.541520118713379,#
3.5844480991363525,-16.682758331298828,-3.5126638412475586,-0.966360330581665,3.0322458744049072,-7.4217939376831055,#
3.3786656856536865,-15.376276969909668,-7.805387496948242,-0.6572716236114502,3.2875797748565674,-7.391251564025879,#
3.3786656856536865,-15.376276969909668,-7.805387496948242,0.0513111688196659,3.6724135875701904,-7.359487533569336,#
6.166304588317871,-15.766308784484863,-9.20040225982666,0.0989572554826736,3.453730344772339,-7.253200054168701,#
10.351350784301758,-15.854843139648438,-6.92482852935791,-0.9248227477073668,2.848991632461548,-6.780404567718506,#
12.969098091125488,-16.852649688720703,-5.5968122482299805,-1.594311237335205,2.42017674446106,-6.847597599029541,#
13.744373321533203,-18.06102561950684,-4.60857629776001,-1.9339423179626465,2.620534658432007,-6.7217631340026855,#
14.060226440429688,-18.35294914245605,-3.548555850982666,-2.436058759689331,3.150750160217285,-6.181774139404297,#
14.060226440429688,-18.35294914245605,-3.548555850982666,-2.4262852668762207,3.544135808944702,-5.600247383117676,#
15.184853553771973,-15.93141269683838,-4.412364959716797,-2.273573398590088,3.618659019470215,-5.277719974517822,#
16.39562225341797,-13.423734664916992,-6.362515449523926,-1.8936264514923096,3.635762929916382,-4.603344917297363,#
16.27597999572754,-11.973685264587402,-8.111669540405273,-1.9217253923416135,3.651644706726074,-3.960733652114868,#
14.46221923828125,-12.07179069519043,-8.532805442810059,-2.0011355876922607,3.760375738143921,-3.6724135875701904,#
14.46221923828125,-12.07179069519043,-8.532805442810059,-2.2149322032928467,4.035256862640381,-3.062788248062134,#
12.351749420166016,-11.499905586242676,-8.00399112701416,-2.195384979248047,4.007157802581787,-2.762251377105713,#
10.80120086669922,-10.112068176269531,-6.807580471038818,-2.3126676082611084,3.567347764968872,-2.172172784805298,#
9.77946662902832,-8.63330364227295,-5.515456199645996,-2.183168172836304,2.922293186187744,-1.6944903135299685,#
9.571290969848633,-8.432307243347168,-4.589433670043945,-2.252804756164551,2.568001747131348,-1.4599249362945557,#
9.571290969848633,-8.432307243347168,-4.589433670043945,-1.8801878690719604,1.8276549577713013,-1.1740483045578003,#
9.750752449035645,-7.9585280418396,-3.960121393203736,-1.3866231441497805,1.1752701997756958,-1.0372185707092283,#
9.516255378723145,-7.331608772277832,-4.192224979400635,-1.187487006187439,0.9688037633895874,-0.9419264793395996,#
8.62612533569336,-5.608776092529297,-4.560719966888428,-1.021336555480957,0.7611156702041626,-0.7757760286331177,#
8.530412673950195,-5.259423732757568,-4.804787635803223,-0.9174925684928894,0.7232431173324585,-0.7000309228897095,#
8.654839515686035,-5.912664413452148,-4.405186176300049,-0.4984513521194458,0.5986303091049194,-0.6792621612548828,#
8.654839515686035,-5.912664413452148,-4.405186176300049,-0.3127537965774536,0.4618005454540252,-0.5473191142082214,#
8.413164138793945,-4.974678039550781,-3.7567315101623535,-0.3677300214767456,0.4190412163734436,-0.4556920528411865,#
7.896315097808838,-4.902893543243408,-3.25663161277771,-0.4874561131000519,0.4190412163734436,-0.3151971697807312,#
8.286344528198242,-5.709274768829346,-3.0317063331604004,-0.3151971697807312,0.3213056325912475,-0.3090887069702148,#
8.501699447631836,-5.190032482147217,-3.2039895057678223,-0.2162399291992187,0.258999228477478,-0.287098228931427,#
8.501699447631836,-5.190032482147217,-3.2039895057678223,-0.1673721522092819,0.1832541674375534,-0.21135313808918,#
8.207381248474121,-4.998606204986572,-3.314059257507324,-0.2064663618803024,0.1685938388109207,-0.1356080919504165,#
8.09970474243164,-6.039484024047852,-3.759124279022217,-0.1246128380298614,0.0855186134576797,-0.0904053896665573,#
8.61176872253418,-6.65204668045044,-4.127618789672852,0.0268772784620523,-0.1050657257437706,0.0427593067288398,#
9.702895164489746,-6.960721015930176,-4.9363932609558105,0.1820324808359146,-0.1942494213581085,0.0867403075098991,#
10.248459815979004,-6.585048198699951,-6.216552734375,0.3872771561145782,-0.3298574984073639,0.2504473626613617,#
10.248459815979004,-6.585048198699951,-6.216552734375,0.287098228931427,-0.3628432750701904,0.4141544103622436,up
10.80120086669922,-7.295715808868408,-7.575676441192627,0.1404948681592941,-0.3603998720645904,0.5045598149299622,up
11.69851016998291,-8.709875106811523,-9.456435203552246,-0.1881409436464309,-0.4349232316017151,0.6829272508621216,up
10.504491806030272,-10.518847465515137,-13.325629234313965,-0.6633800864219666,-0.439810037612915,0.8979454636573792,up
10.308279991149902,-14.136795997619627,-17.742778778076172,-0.8979454636573792,-0.4434750974178314,0.9700254201889038,up
10.308279991149902,-14.136795997619627,-17.742778778076172,-1.011563062667847,-0.8661814332008362,1.137397527694702,up
12.01914882659912,-19.379470825195312,-21.028125762939453,-0.8063183426856995,-1.2852225303649902,1.1911520957946775,up
18.94158363342285,-21.487548828125,-25.23949241638184,-0.4263713657855987,-2.20760178565979,1.645622491836548,up
26.84029197692871,-25.00260353088379,-25.670202255249023,-0.2748812437057495,-3.618659019470215,2.4165117740631104,up
29.381467819213867,-26.83550453186035,-24.24647331237793,-0.130721315741539,-4.433529376983643,2.698723077774048,up
35.370704650878906,-28.74497985839844,-24.91167449951172,-0.4569137394428253,-5.599025726318359,3.51237154006958,up
35.370704650878906,-28.74497985839844,-24.91167449951172,-1.4709200859069824,-7.021078109741211,4.3467888832092285,up
41.082366943359375,-29.388647079467773,-24.016759872436523,-1.930277228355408,-7.777307033538818,4.703523635864258,up
43.54219055175781,-26.32822608947754,-23.26302146911621,-2.2747950553894043,-8.994114875793457,5.193423271179199,up
45.391845703125,-24.25843620300293,-23.35873413085937,-2.305337429046631,-9.530438423156738,5.430431842803955,up
47.9043083190918,-22.1551456451416,-23.49512481689453,-2.108644723892212,-10.623855590820312,5.939878463745117,up
47.9043083190918,-22.1551456451416,-23.49512481689453,-1.7775654792785645,-11.62564468383789,6.358920097351074,up
49.679786682128906,-18.24048614501953,-24.172292709350582,-1.7922258377075195,-11.966497421264648,6.553169250488281,up
49.26343536376953,-14.706287384033203,-23.99283218383789,-2.0267910957336426,-12.297576904296877,6.768187046051025,up
46.0953369140625,-11.22233772277832,-19.092330932617188,-2.131856918334961,-12.522368431091309,6.799951553344727,up
41.14458465576172,-6.534798622131348,-4.022334575653076,-1.9840317964553835,-12.578566551208496,6.598371982574463,up
41.14458465576172,-6.534798622131348,-4.022334575653076,-0.8087617754936218,-12.671414375305176,5.858025074005127,up
36.64608001708984,0.3134597539901733,3.589233875274658,1.4281609058380127,-12.02147388458252,4.85012674331665,up
27.81177520751953,3.3236305713653564,-4.938785552978516,2.515469074249268,-10.725255966186523,4.812254905700684,up
28.601408004760746,10.578668594360352,2.3617160320281982,2.935731887817383,-7.826175212860107,4.593571662902832,up
25.28734970092773,11.686546325683594,11.205588340759276,2.208823680877685,-7.751651287078857,4.131770610809326,up
36.51686477661133,8.477770805358887,18.582660675048828,0.5949652194976807,-6.058382987976074,3.40119743347168,up
36.51686477661133,8.477770805358887,18.582660675048828,0.2247917801141739,-5.018721103668213,2.19782829284668,up
31.733613967895508,-1.4404792785644531,8.353343963623047,1.16427481174469,-5.077362537384033,2.2466959953308105,up
8.410772323608398,13.184453964233398,16.314266204833984,-0.0635281130671501,-1.6346272230148315,2.7317090034484863,up
5.484349250793457,12.918848991394045,15.098711013793944,0.577861487865448,-0.5937435030937195,0.3213056325912475,up
2.715853452682495,7.2502522468566895,3.129812002182007,1.7018204927444458,-0.9822423458099364,-0.4740174412727356,up
2.715853452682495,7.2502522468566895,3.129812002182007,2.2137105464935303,0.1160609796643257,-0.6096255779266357,up
-6.015556335449219,3.273381233215332,-0.4833501875400543,2.71094012260437,1.919282078742981,-0.256555825471878,#
-18.482160568237305,7.558926582336426,16.031911849975586,2.6828410625457764,1.799556016921997,0.0329857505857944,#
-15.771093368530272,12.480962753295898,15.620347023010254,-0.1050657257437706,-0.5680879354476929,-0.4056025743484497,#
-11.045268058776855,7.45364236831665,6.247659683227539,0.463022232055664,-0.6743753552436829,-0.282211422920227,#
-14.423934936523438,3.0963122844696045,5.0225348472595215,0.3555130958557129,0.1942494213581085,-0.5436540246009827,#
-14.423934936523438,3.0963122844696045,5.0225348472595215,-0.4679089784622192,0.1490467190742492,-0.1918060332536697,#
-13.457234382629396,2.313859462738037,1.9884356260299685,0.0635281130671501,0.2101314514875412,-0.2284568697214126,#
-9.470791816711426,2.861815929412842,3.981656789779663,1.178935170173645,-0.1368297785520553,-0.2675510942935943,#
-8.784051895141602,4.95792818069458,5.50349235534668,1.0714260339736938,-0.2858764827251434,-0.1319430023431778,#
-7.601996898651123,5.034498691558838,4.981856822967529,0.7916580438613892,-0.1490467190742492,-0.0745233595371246,#
-7.601996898651123,5.034498691558838,4.981856822967529,0.0989572554826736,-0.0134386392310261,-0.1869192570447921,#
-7.570890426635742,3.0269205570220947,3.960121393203736,-0.2101314514875412,0.0305423624813556,-0.2699944972991943,#
-7.843672752380371,2.971885919570923,5.046462535858154,-0.3469612300395965,0.1600419729948043,-0.3127537965774536,#
-7.025327682495117,3.072384119033813,5.998805999755859,0.0171037223190069,0.2162399291992187,-0.2944283783435821,#
-6.920042991638184,2.919243574142456,6.08016300201416,0.1404948681592941,0.258999228477478,-0.2907632887363434,#
-6.939186096191406,2.7948169708251958,5.958127975463867,0.1014006435871124,0.4508052766323089,-0.2553341388702392,#
-6.939186096191406,2.7948169708251958,5.958127975463867,0.0171037223190069,0.6047387719154358,-0.258999228477478,#
-7.046862602233887,2.878565788269043,5.436492443084717,-0.0171037223190069,0.6792621612548828,-0.2516690790653229,#
-7.36032247543335,2.203789472579956,4.981856822967529,0.0708582773804664,0.7330166697502136,-0.3005368411540985,#
-7.838886737823486,2.203789472579956,4.299902439117432,0.2101314514875412,0.7647807598114014,-0.3445178270339966,#
-8.214560508728027,3.1968109607696533,3.464807271957397,0.7244647741317749,0.8637380003929138,-0.3408527672290802,#
-8.214560508728027,3.1968109607696533,3.464807271957397,0.9700254201889038,0.836860716342926,-0.3787252902984619,#
-8.461020469665527,3.4241292476654053,3.10109806060791,0.8148701786994934,0.8222004175186157,-0.3921639025211334,#
-8.642874717712402,2.476571559906006,3.3068809509277344,0.3542913794517517,0.6474980711936951,-0.5338804721832275,#
-8.980262756347656,1.8951154947280884,2.100898265838623,0.3591781854629516,0.574196457862854,-0.7134696245193481,#
-9.745966911315918,1.9716858863830569,1.1940184831619265,0.5473191142082214,0.5570926666259766,-0.818535327911377,#
-9.745966911315918,1.9716858863830569,1.1940184831619265,0.7953230738639832,0.5448757410049438,-0.8283088207244873,#
-10.059426307678224,2.392822742462158,0.9475577473640442,0.6377245187759399,0.5570926666259766,-0.7098045349121094,#
-9.997212409973145,1.5912269353866575,0.9786643981933594,0.3689517080783844,0.4337015450000763,-0.4898994863033294,#
-10.066605567932127,1.289731502532959,1.4787644147872925,0.155155211687088,0.3469612300395965,-0.3616215586662292,#
-10.04985523223877,1.3543376922607422,1.9956141710281368,0.0818535313010215,0.3042019307613373,-0.2980934381484985,#
-9.712467193603516,1.6773687601089478,2.462214469909668,0.1795890927314758,0.2028012871742248,-0.2211267054080963,#
-9.712467193603516,1.6773687601089478,2.462214469909668,0.577861487865448,0.0952921733260154,-0.2748812437057495,#
-9.918249130249023,1.373480200767517,2.0195422172546387,0.84541255235672,0.0806318372488021,-0.342074453830719,#
-10.365707397460938,1.9956141710281368,0.916451096534729,1.3548591136932373,0.0745233595371246,-0.411711037158966,#
-9.954142570495604,2.1607186794281006,1.4021940231323242,1.0372185707092283,0.0354291386902332,-0.1832541674375534,#
-9.65503978729248,1.361515998840332,2.196611166000366,0.8857284784317017,-0.0904053896665573,-0.1600419729948043,#
-9.65503978729248,1.361515998840332,2.196611166000366,0.9749122262001038,-0.2076880484819412,-0.3261924386024475,#
-9.399007797241213,0.7274181246757507,2.469392776489258,1.1532796621322632,-0.1832541674375534,-0.4202629029750824,#
-10.17906665802002,1.361515998840332,1.9716858863830569,1.7360278367996216,-0.1258345395326614,-0.5289937257766724,#
-10.07139015197754,2.833101987838745,1.856830358505249,1.7238109111785889,0.0146603342145681,-0.411711037158966,#
-9.506684303283691,2.234896183013916,1.9884356260299685,1.572320818901062,-0.0232121963053941,-0.3530696928501129,#
-9.231510162353516,0.2440679222345352,1.244267821311951,1.3157649040222168,-0.2052446752786636,-0.439810037612915,#
-9.231510162353516,0.2440679222345352,1.244267821311951,1.7824522256851196,-0.1979145109653473,-0.5057815313339233,#
-9.377471923828123,-1.2610174417495728,2.2755744457244877,2.366422176361084,-0.2309002727270126,-0.5754181146621704,#
-9.698110580444336,-1.852044701576233,2.553141593933105,4.234393119812012,-0.5277720093727112,-0.8429691791534424,#
-10.813164710998535,-1.0743772983551023,1.34476637840271,5.256951332092285,-0.9211575984954834,-1.1716049909591677,#
-11.196017265319824,-0.9786643981933594,-0.9930213689804076,6.803616523742676,-0.7415685653686523,-1.414722204208374,#
-11.196017265319824,-0.9786643981933594,-0.9930213689804076,9.08818531036377,0.7281299233436584,-0.5595360994338989,#
-11.406585693359377,2.122433662414551,-1.5337992906570437,10.132734298706056,0.8478559851646423,-0.1050657257437706,#
-9.128618240356444,6.013163089752197,-0.1435693651437759,11.400853157043455,-0.4508052766323089,0.2418954968452453,#
-7.274180889129639,7.484748840332031,1.5242280960083008,12.160747528076172,-0.7159129977226257,0.5998519659042358,#
-10.045069694519045,4.90528678894043,-2.108076810836792,12.055681228637695,-0.3029802441596985,0.7110261917114258,#
-10.045069694519045,4.90528678894043,-2.108076810836792,11.005023956298828,1.0335536003112793,0.8380824327468872,#
-11.188838958740234,4.278366565704346,-3.25663161277771,8.21100902557373,0.919935941696167,0.9358179569244384,#
-9.564111709594728,5.546562671661377,-2.177468776702881,6.548282623291016,0.7207997441291809,0.8820634484291077,#
-9.169296264648438,6.199803352355957,-2.9623143672943115,3.1898443698883057,0.6792621612548828,0.8478559851646423,#
-9.06401252746582,3.840480089187622,-4.074976921081543,1.706707239151001,0.7525637745857239,0.7953230738639832,#
-9.236295700073242,3.1896328926086426,-4.089334011077881,0.0610847249627113,0.8466342687606812,0.6670452356338501,#
-9.236295700073242,3.1896328926086426,-4.089334011077881,-0.3701734542846679,0.7782194018363953,0.6267292499542236,#
-8.863015174865723,3.713660717010498,-4.280759334564209,-0.3701734542846679,0.5937435030937195,0.5900784730911255,#
-9.049654960632324,3.314059257507324,-5.414957523345947,-0.2418954968452453,0.4556920528411865,0.4972296357154846,#
-8.499305725097656,2.792424201965332,-4.409972190856934,0.0781884491443634,0.2956500649452209,0.4263713657855987,#
-8.0350980758667,2.971885919570923,-3.864408254623413,0.2785463333129883,0.1844758540391922,0.4422534108161926,#
-8.0350980758667,2.971885919570923,-3.864408254623413,0.6193991303443909,0.1734806150197982,0.3310791850090027,#
-7.456035614013672,3.005385160446167,-3.91705060005188,0.7415685653686523,0.1380514800548553,0.2834331095218658,#
-7.037291049957275,2.44067907333374,-4.644468784332275,0.5937435030937195,0.1014006435871124,0.2101314514875412,#
-7.214360237121582,1.674975872039795,-5.321637630462647,0.2846547961235046,0.1624853760004043,0.1881409436464309,#
-6.943971633911133,1.9094725847244265,-5.726025104522705,0.199136197566986,0.2076880484819412,0.1600419729948043,#
-6.673582077026367,1.9046868085861208,-5.781059265136719,0.0952921733260154,0.130721315741539,0.0794101431965828,#
-6.673582077026367,1.9046868085861208,-5.781059265136719,-0.1075091138482093,0.1099525094032287,-0.0476460866630077,#
-7.171289443969727,2.3186452388763428,-5.747560024261475,-0.2284568697214126,0.1026223376393318,-0.0794101431965828,#
-6.675975322723389,2.421536445617676,-6.159125804901123,-0.4129327237606048,0.0549762547016143,-0.1514901220798492,#
-5.654239654541016,1.9573287963867188,-6.671189785003662,-0.4764608442783355,-0.1490467190742492,-0.2321219593286514,#
-4.275973796844482,1.3782659769058228,-7.824529647827148,-0.4960079491138458,-0.2626643180847168,-0.282211422920227,#
-4.275973796844482,1.3782659769058228,-7.824529647827148,-0.4776825606822967,-0.5485408306121826,-0.4202629029750824,#
-2.2995026111602783,2.0410776138305664,-9.367900848388672,-0.5277720093727112,-0.7623373866081238,-0.522885262966156,#
-0.2344966232776641,2.335394859313965,-10.358529090881348,-0.6621583700180054,-1.233911395072937,-0.7330166697502136,#
1.797009825706482,1.739582061767578,-11.743972778320312,-1.0176715850830078,-1.8007776737213137,-0.9223793148994446,down
3.5198421478271484,1.4835500717163086,-14.648860931396484,-1.2106993198394775,-2.1220834255218506,-1.0531005859375,down
3.5198421478271484,1.4835500717163086,-14.648860931396484,-1.6309621334075928,-2.894194364547729,-1.281557559967041,down
6.501298904418945,1.2083754539489746,-17.594425201416016,-2.1477389335632324,-4.1012282371521,-1.593089580535889,down
11.318050384521484,-0.1603191047906875,-20.013568878173828,-2.282125234603882,-4.894108295440674,-1.8166598081588743,down
18.513267517089844,-2.5004994869232178,-21.43968963623047,-2.399407863616944,-6.883026599884033,-2.216153860092163,down
29.78107070922852,-0.5982056856155396,-21.798614501953125,-2.3468751907348637,-8.049745559692383,-2.4421675205230717,down
35.473594665527344,-4.910072326660156,-18.53719711303711,-2.7732462882995605,-10.290332794189451,-2.8502132892608643,down
35.473594665527344,-4.910072326660156,-18.53719711303711,-2.318776130676269,-11.134523391723633,-3.364546537399292,down
39.23511505126953,-6.601797103881836,-15.019746780395508,-1.822768211364746,-11.872426986694336,-3.483051061630249,down
46.27718734741211,-7.128218650817871,-14.871392250061035,-0.6047387719154358,-13.7611665725708,-4.057247161865234,down
48.91647720336914,-9.104689598083496,-14.148760795593262,0.3591781854629516,-15.064714431762695,-3.8202385902404794,down
68.10930633544922,0.9834501147270204,-8.9371919631958,1.1080769300460815,-15.895466804504396,-3.5331404209136963,down
68.10930633544922,0.9834501147270204,-8.9371919631958,1.863084077835083,-18.892282485961918,-2.894194364547729,down
78.28358459472656,5.601597785949707,-1.0600204467773438,1.3841798305511477,-19.098751068115234,-2.1660642623901367,down
78.36494445800781,5.938986301422119,8.437092781066895,-0.0806318372488021,-17.001100540161133,-0.9003888368606567,down
69.38707733154297,3.5820553302764893,7.063612461090088,-0.9480348825454712,-14.855805397033691,-0.9871291518211364,down
60.1268424987793,0.9475577473640442,5.474778175354004,-0.9724688529968262,-12.76059913635254,-1.241241693496704,down
55.56134414672852,-4.620540142059326,10.001997947692873,-1.1520578861236572,-10.019116401672363,-1.385401487350464,down
55.56134414672852,-4.620540142059326,10.001997947692873,-1.099524974822998,-8.560413360595703,-1.485580563545227,down
48.47380065917969,-4.735395908355713,15.476776123046877,-0.6755970120429993,-7.816401481628418,-1.5112361907958984,down
36.875789642333984,-2.0099709033966064,17.505889892578125,-0.3066453039646148,-5.530611038208008,-1.0323318243026731,down
25.596023559570312,0.6221339106559753,15.79502296447754,-0.5277720093727112,-3.4867160320281982,-0.2761029601097107,down
19.913068771362305,1.660618782043457,14.366507530212402,-0.8050966858863831,-2.643746852874756,0.1246128380298614,down
19.913068771362305,1.660618782043457,14.366507530212402,-1.854532241821289,-1.610193371772766,0.860072910785675,down
15.929019927978516,-0.3828516006469726,13.746766090393066,-2.315110921859741,-1.37684965133667,1.1826002597808838,down
12.739388465881348,-3.845265865325928,11.708081245422363,-2.427506923675537,-0.9871291518211364,1.3072130680084229,down
10.671989440917969,-4.127618789672852,9.219545364379885,-1.7763437032699585,-0.5167768001556396,0.8637380003929138,down
9.891928672790527,-2.919243574142456,7.695317268371582,-1.4513731002807615,-0.2492256760597229,0.6511631608009338,#
9.339186668395996,-2.452643394470215,6.9344000816345215,-1.0042328834533691,0.0659715011715889,0.2406738102436065,#
9.339186668395996,-2.452643394470215,6.9344000816345215,-0.919935941696167,0.522885262966156,0.0390942245721817,#
9.107083320617676,-3.704089403152466,5.781059265136719,-0.8124268054962158,0.471574068069458,-0.0427593067288398,#
10.198209762573242,-4.371686935424805,3.4576287269592285,-0.7965447902679443,0.3518480062484741,-0.0757450610399246,#
9.745966911315918,-2.5986053943634038,0.5670989155769348,-0.7513421177864075,0.3909422159194946,-0.0561979450285434,#
8.997013092041016,-1.6295121908187866,-0.3134597539901733,-0.7513421177864075,0.9529216885566713,0.0720799788832664,#
8.997013092041016,-1.6295121908187866,-0.3134597539901733,-0.7476770281791687,1.2876659631729126,0.1930277347564697,#
9.104689598083496,-2.376072883605957,-0.5623133182525635,-0.6536065340042114,1.2082558870315552,0.2675510942935943,#
9.57607650756836,-1.581655740737915,-1.7443678379058838,-0.2541124522686004,1.1312891244888306,0.4129327237606048,#
10.401599884033203,-2.1918253898620605,-2.0673987865448,-0.2052446752786636,1.241241693496704,0.4789042472839355,#
11.028520584106444,-1.9740787744522093,-1.5385849475860596,-0.1966928243637085,1.2045906782150269,0.5424323678016663,#
11.028520584106444,-1.9740787744522093,-1.5385849475860596,-0.2028012871742248,1.0824213027954102,0.6865922808647156,#
10.705488204956056,-1.3351951837539673,-0.4283152520656585,-0.1612636744976043,1.1447278261184692,0.7317950129508972,#
10.796415328979492,-0.1914258003234863,0.1411765366792678,0.0623064190149307,1.1838220357894895,0.7061393857002258,#
10.719844818115234,-0.0741775035858154,-0.0119641125202178,-0.2199050188064575,1.327981948852539,0.7342383861541748,#
10.884950637817385,-0.4091726541519165,-0.3086740970611572,-0.3909422159194946,1.4037269353866575,0.7831061482429504,#
11.454442024230955,-0.9212367534637452,0.6556334495544434,-0.8002098798751831,1.3524158000946045,0.910162389278412,#
11.454442024230955,-0.9212367534637452,0.6556334495544434,-0.8979454636573792,1.1752701997756958,0.9797989726066588,#
12.131609916687012,-0.794417142868042,1.56969153881073,-0.8405258059501648,1.178935170173645,1.0140063762664795,#
12.035898208618164,-1.1437692642211914,2.3473589420318604,-0.6939224600791931,1.4110571146011353,1.123958945274353,#
12.110074996948242,-1.7252250909805298,4.35972261428833,-0.5473191142082214,1.626075267791748,1.240019917488098,#
13.701302528381348,-1.4787644147872925,5.300102710723877,-0.4239279925823211,1.6211885213851929,1.3035480976104736,#
13.701302528381348,-1.4787644147872925,5.300102710723877,-0.4361449182033539,1.626075267791748,1.4196090698242188,#
15.251851081848145,-3.617947816848755,7.525426864624023,-0.3042019307613373,1.7629051208496094,1.494132399559021,#
18.063417434692383,-4.871786594390869,10.77727222442627,-0.0134386392310261,1.910730242729187,1.716480731964111,#
21.51386833190918,-3.081955671310425,11.672188758850098,0.6768187284469604,2.205158472061157,1.7079288959503174,#
21.564115524291992,-1.043270707130432,8.547162055969238,0.8722898364067078,2.785463571548462,1.7690136432647705,#
19.544574737548828,-2.514856576919556,10.815558433532717,0.4886777997016907,4.363893032073975,2.0866541862487797,#
19.544574737548828,-2.514856576919556,10.815558433532717,-0.3213056325912475,4.944197654724121,2.6193130016326904,#
21.04487419128418,-7.348358631134033,14.541182518005373,-0.3445178270339966,4.97107458114624,2.740260601043701,#
25.7563419342041,-10.078569412231444,16.110876083374023,-0.0940704718232154,4.974740028381348,2.85509991645813,#
28.66122817993164,-12.095718383789062,15.493526458740234,0.6255075931549072,6.214759826660156,3.239933729171753,#
26.66561508178711,-10.437491416931152,16.634902954101562,0.7036960124969482,6.989314079284668,3.49282455444336,#
26.66561508178711,-10.437491416931152,16.634902954101562,1.1117420196533203,7.876264572143555,3.9424080848693848,#
22.406391143798828,-7.77906608581543,14.648860931396484,1.3438639640808103,8.417474746704102,4.093898296356201,#
17.548959732055664,-7.570890426635742,11.885149955749512,1.4098354578018188,9.066195487976074,4.069464206695557,#
13.615160942077637,-8.446663856506348,11.274980545043944,1.7274760007858276,9.000223159790039,3.97661566734314,#
13.49312686920166,-9.013763427734377,9.741181373596191,2.1367435455322266,8.788870811462402,3.8410074710845943,#
15.895520210266112,-10.791629791259766,7.843672752380371,2.552119731903076,8.247659683227539,3.2154998779296875,#
15.895520210266112,-10.791629791259766,7.843672752380371,2.4079599380493164,7.616043567657471,2.803788661956787,#
16.835899353027344,-11.205588340759276,4.9363932609558105,2.2747950553894043,7.447449684143066,2.7610294818878174,#
14.770894050598145,-9.418149948120115,2.3186452388763428,2.117196559906006,7.374147891998291,2.8538784980773926,#
11.935399055480955,-6.221338748931885,-0.7441678047180176,2.039008140563965,7.396138191223144,2.990708112716675,#
9.461220741271973,-4.101297855377197,-2.84506630897522,1.7567967176437378,7.418128967285156,3.066452980041504,#
9.461220741271973,-4.101297855377197,-2.84506630897522,1.2632319927215576,7.150577545166016,2.90396785736084,#
7.190432548522949,-3.4983065128326416,-3.5509488582611084,0.9040539264678956,7.033295154571533,2.8917508125305176,#
5.838487148284912,-3.225525140762329,-5.194818019866943,0.652384877204895,6.389462471008301,2.91374135017395,#
4.993820667266846,-0.3302095234394073,-6.123232841491699,0.758672297000885,5.449978828430176,2.9235148429870605,#
3.565305471420288,2.421536445617676,-7.025327682495117,0.8380824327468872,5.099352836608887,2.846548318862915,#
3.565305471420288,2.421536445617676,-7.025327682495117,0.95169997215271,4.712075233459473,2.536237955093384,#
1.3782659769058228,2.806780815124512,-7.587640762329102,1.0201148986816406,4.526378154754639,2.389634370803833,#
-0.729810893535614,2.8833510875701904,-7.515855312347412,0.9700254201889038,4.229506015777588,2.2674648761749268,#
-1.94297194480896,3.235095977783203,-7.599604606628418,0.6047387719154358,3.656531572341919,2.1733944416046143,#
-2.7014968395233154,3.893122434616089,-7.458428382873535,0.4898994863033294,3.228938341140747,2.1184182167053223,#
-3.7328033447265625,4.603790760040283,-6.594619274139404,0.4324798583984375,2.351761817932129,2.0145742893218994,#
-3.7328033447265625,4.603790760040283,-6.594619274139404,0.3616215586662292,1.9583762884140012,1.852088928222656,#
-5.154139995574951,5.158926010131836,-5.501099109649658,0.3811686933040619,1.7910041809082031,1.8056644201278689,#
-5.67338228225708,5.383851051330566,-5.257031440734863,0.4068242609500885,1.5588821172714231,1.5185662508010864,#
-5.441278457641602,5.125426292419434,-6.309873104095459,0.3054236173629761,0.9223793148994446,1.2644537687301636,#
-5.556134223937988,5.295316696166992,-6.982256412506104,0.2699944972991943,0.6768187284469604,1.202147364616394,#
-5.556134223937988,5.295316696166992,-6.982256412506104,0.0305423624813556,0.5399889945983887,1.1056334972381592,#
-6.106483459472656,5.682953834533691,-6.010770320892334,-0.0720799788832664,0.5644228458404541,1.0201148986816406,#
-6.393621921539307,5.706881999969482,-5.065605640411377,-0.1453816443681717,0.4874561131000519,0.8393040895462036,#
-5.843273162841797,5.627918720245361,-5.091926097869873,-0.1966928243637085,0.3127537965774536,0.6462763547897339,#
-5.048855781555176,5.72123908996582,-5.613561630249023,-0.2418954968452453,0.178367406129837,0.5302154421806335,#
-4.878964900970459,5.979663372039795,-6.180660724639893,-0.333522617816925,-0.1160609796643257,0.3274141252040863,#
-4.878964900970459,5.979663372039795,-6.180660724639893,-0.549762487411499,-0.2345653474330902,0.1942494213581085,#
-5.024927616119385,5.352744102478027,-6.254837989807129,-0.5888567566871643,-0.1734806150197982,0.1563768982887268,#
-4.584648132324219,4.821537494659424,-6.049055576324463,-0.7146912813186646,-0.2431172132492065,0.007330167107284,#
-3.948157548904419,4.706681728363037,-6.206982612609863,-0.7708892226219177,-0.5204418301582336,-0.2247917801141739,#
-3.239881753921509,4.35254430770874,-7.099504470825195,-0.84541255235672,-0.6377245187759399,-0.3176405727863312,#
-3.239881753921509,4.35254430770874,-7.099504470825195,-1.0237799882888794,-0.9028322100639344,-0.546097457408905,down
-2.0123636722564697,3.6059837341308594,-8.140382766723633,-1.141062617301941,-1.109298586845398,-0.6597149968147278,down
-0.2584248483181,2.67278265953064,-9.19561767578125,-1.4415994882583618,-1.6724997758865356,-0.8710681796073914,down
1.832902193069458,1.727617859840393,-10.191031455993652,-1.6578394174575806,-2.465379476547241,-1.1447278261184692,down
4.067798614501953,0.4713860750198364,-10.923234939575195,-1.7433580160140991,-2.9577224254608154,-1.2937743663787842,down
4.067798614501953,0.4713860750198364,-10.923234939575195,-1.8826313018798828,-4.123219013214111,-1.5539953708648682,down
6.716653347015381,-0.7728817462921143,-13.043275833129885,-2.4812614917755127,-5.247177600860596,-1.6944903135299685,down
10.260422706604004,-1.6510475873947144,-15.479169845581056,-2.950392246246338,-5.8482513427734375,-1.6834949254989624,down
15.16571044921875,-3.7016968727111816,-18.017955780029297,-3.738384962081909,-7.247091293334961,-1.6615043878555298,down
21.24347686767578,-6.9344000816345215,-20.796022415161133,-3.8776583671569824,-7.839613437652588,-1.7494664192199707,down
26.277976989746094,-7.980063438415527,-22.02593231201172,-4.1525397300720215,-9.149270057678224,-2.218597173690796,down
26.277976989746094,-7.980063438415527,-22.02593231201172,-4.9832916259765625,-11.180948257446287,-3.2643675804138184,down
31.003803253173828,-2.218146562576294,-21.4636173248291,-5.757846355438232,-11.76736068725586,-3.7628190517425537,down
38.21098327636719,4.642076015472412,-21.891935348510746,-9.499896049499512,-12.301241874694824,-4.829358100891113,down
51.07958221435547,-10.411171913146973,-21.56890296936035,-9.425373077392578,-13.135659217834473,-6.82805061340332,down
71.219970703125,-18.340984344482425,-13.574482917785645,-8.53231430053711,-13.606012344360352,-8.14015007019043,down
71.219970703125,-18.340984344482425,-13.574482917785645,-3.997384548187256,-13.990845680236816,-9.989795684814451,down
72.73463439941406,-8.769694328308105,-3.089133977890014,-1.9901403188705444,-13.77460479736328,-9.9287109375,down
74.66085052490234,-0.9810572862625122,-0.3780659735202789,0.1795890927314758,-13.062357902526855,-9.520665168762209,down
71.13383483886719,-0.4211367666721344,4.876572608947754,0.1148392781615257,-11.582884788513184,-7.832283020019531,down
59.56214141845703,-7.568498134613037,8.815157890319824,-0.5632011890411377,-10.386846542358398,-7.080941200256348,down
50.22056198120117,-12.480962753295898,12.98106288909912,-2.144073724746704,-8.019203186035156,-5.448757648468018,down
50.22056198120117,-12.480962753295898,12.98106288909912,-2.516690492630005,-6.472537517547607,-3.7127294540405273,down
40.46741485595703,-13.24427318572998,17.58724594116211,-2.190498352050781,-5.831148147583008,-2.939396858215332,down
29.79064178466797,-7.412964344024658,16.725830078125,-1.4367127418518066,-4.100006580352783,-1.4868022203445437,down
21.65265274047852,-4.78803825378418,13.674981117248535,-1.6016414165496826,-2.5008084774017334,-0.3665083348751068,down
15.833307266235352,-3.936193227767944,11.576476097106934,-1.7922258377075195,-1.907065153121948,0.0806318372488021,down
15.833307266235352,-3.936193227767944,11.576476097106934,-2.290677070617676,-0.9736905097961426,0.8637380003929138,down
12.000005722045898,-6.063412666320801,10.305886268615724,-2.497143507003784,-0.6988092660903931,1.0140063762664795,down
10.353742599487305,-9.664610862731934,8.279166221618652,-2.322441339492798,-0.6536065340042114,0.8808417320251465,down
10.11924648284912,-8.855835914611816,6.465407371520996,-1.6431790590286257,-0.4886777997016907,0.6975875496864319,down
9.736394882202148,-5.982056617736816,4.989035129547119,-1.4513731002807615,-0.2370087206363678,0.6193991303443909,down
8.82951545715332,-2.050648927688598,3.170490026473999,-0.7171346545219421,0.2174616158008575,0.3750602006912231,down
8.82951545715332,-2.050648927688598,3.170490026473999,-0.3494046330451965,0.7488986849784851,0.2492256760597229,down
8.389235496520996,-0.0047856452874839,1.4859429597854614,-0.3445178270339966,0.9419264793395996,0.1905843466520309,#
8.334200859069824,-1.0695916414260864,-0.0047856452874839,-0.463022232055664,0.965138614177704,0.2064663618803024,#
9.083154678344728,-3.211168050765991,-0.057427741587162,-0.574196457862854,0.7965447902679443,0.3115321099758148,#
10.212566375732422,-1.7754744291305542,0.1268195956945419,-0.5974085927009583,0.4239279925823211,0.5509842038154602,#
10.212566375732422,-1.7754744291305542,0.1268195956945419,-0.365286648273468,0.4324798583984375,0.7110261917114258,#
10.277173042297363,0.1914258003234863,0.7178468108177185,-0.2773246467113495,0.5815265774726868,0.7195780277252197,#
10.15035343170166,0.0047856452874839,0.7704889178276062,-0.1514901220798492,0.7427902817726135,0.6499415040016174,#
10.518847465515137,-0.851844847202301,-0.3254238963127136,-0.2321219593286514,0.6584933400154114,0.6584933400154114,#
11.468798637390137,-1.246660590171814,-0.3900300860404968,-0.2919849753379822,0.5900784730911255,0.6621583700180054,#
11.468798637390137,-1.246660590171814,-0.3900300860404968,-0.3579564988613128,0.4532486498355865,0.6914790868759155,#
12.361321449279783,-1.5314064025878906,0.5455635190010071,-0.1514901220798492,0.6707102656364441,0.8612945675849915,#
12.086146354675291,-1.3495519161224363,0.9954141974449158,-0.1185043603181839,0.905275583267212,0.9871291518211364,#
11.490333557128906,-1.8113667964935305,1.5170495510101318,0.0855186134576797,1.2632319927215576,1.1862653493881226,#
11.720046043395996,-1.804188132286072,2.411965131759644,0.199136197566986,1.359745979309082,1.2632319927215576,#
12.928421020507812,-1.430907964706421,2.1343977451324463,0.4312581717967987,1.429382562637329,1.456259846687317,#
12.928421020507812,-1.430907964706421,2.1343977451324463,0.5558710098266602,1.3805147409439087,1.6150801181793213,#
13.775480270385742,-1.7898313999176023,2.7876384258270264,0.5008947253227234,1.5283397436141968,1.7323628664016724,#
15.388242721557615,-2.6799612045288086,4.862215518951416,0.1392731666564941,1.808107852935791,2.0011355876922607,#
17.41257095336914,-4.005585193634033,6.400800704956055,-0.0916270837187767,1.8997348546981807,2.3468751907348637,#
16.740188598632812,-3.292524099349976,6.345765590667725,-0.2626643180847168,2.102536201477051,2.586327314376831,#
16.740188598632812,-3.292524099349976,6.345765590667725,-1.2717839479446411,2.86487340927124,3.0273590087890625,#
14.64407444000244,-4.3142595291137695,8.855835914611816,-1.627297043800354,3.2729194164276123,3.2191648483276367,#
14.47896957397461,-8.161917686462402,10.138389587402344,-1.7311410903930664,3.738384962081909,3.500154733657837,#
15.8572359085083,-12.232110023498535,11.90668487548828,-1.5882028341293335,3.4500653743743896,3.734720230102539,#
19.101903915405277,-16.381263732910156,10.25563907623291,-1.3487507104873655,3.28024959564209,3.861776351928711,#
23.851655960083008,-19.858034133911133,9.93260669708252,-0.4874561131000519,3.448843479156494,4.299142837524414,#
23.851655960083008,-19.858034133911133,9.93260669708252,0.8674030900001526,3.305905342102051,4.366336345672607,#
26.4047966003418,-18.22612953186035,8.84626579284668,1.7787871360778809,3.720059633255005,4.462850093841553,#
25.12463760375977,-14.194223403930664,7.377072334289551,3.0615663528442383,4.880669116973877,4.71574068069458,#
22.28435707092285,-12.923635482788086,9.190832138061523,3.274141311645508,5.583143711090088,5.104239463806152,#
21.303300857543945,-14.859427452087402,8.310273170471191,3.220386743545532,5.68087911605835,5.232517242431641,#
21.303300857543945,-14.859427452087402,8.310273170471191,3.335226058959961,6.292948246002197,5.436540603637695,#
21.899112701416016,-15.510276794433594,5.855237007141113,3.222830057144165,6.35403299331665,5.464639663696289,#
19.274185180664062,-11.813365936279297,4.163511276245117,3.159301996231079,6.637465953826904,5.7382988929748535,#
15.031710624694824,-8.97787094116211,2.974278450012207,3.165410280227661,7.052842617034912,6.17444372177124,#
11.313264846801758,-5.843273162841797,2.2612173557281494,3.274141311645508,7.062615871429443,6.225755214691162,#
8.49452018737793,-4.1659040451049805,0.760917603969574,3.429296493530273,6.6582350730896,6.114581108093262,#
8.49452018737793,-4.1659040451049805,0.760917603969574,3.8520028591156006,6.35403299331665,5.674770832061768,#
6.501298904418945,-3.579662799835205,-1.765903115272522,4.091454982757568,6.324712753295898,5.386451244354248,#
5.118247985839844,-2.050648927688598,-3.5676987171173096,3.9643983840942383,5.965534210205078,4.6070098876953125,#
4.0797624588012695,0.3493521213531494,-3.76151704788208,3.751823663711548,5.551379680633545,3.8520028591156006,#
2.581855773925781,2.0027925968170166,-3.376272678375244,3.728611469268799,5.525724411010742,3.601555347442627,#
2.581855773925781,2.0027925968170166,-3.376272678375244,3.7628190517425537,5.690652847290039,3.355994701385498,#
1.1102697849273682,1.3998013734817505,-4.125226020812988,3.7799227237701416,5.701648235321045,3.319344043731689,#
-0.2273181527853012,0.6867401003837585,-5.364708423614502,3.346221208572388,5.1653242111206055,3.481829166412353,#
-0.5575276613235474,-0.5048855543136597,-4.673182487487793,2.8538784980773926,4.365114212036133,2.7463691234588623,#
-0.3445664942264557,0.9379864931106568,-3.912264823913574,2.8245575428009038,3.869106531143189,2.18438982963562,#
-0.3445664942264557,0.9379864931106568,-3.912264823913574,2.578997135162353,2.8306660652160645,1.682273268699646,#
-0.1124626696109771,3.0652055740356445,-3.907479047775269,1.7848955392837524,2.398186445236206,1.6224102973937988,#
-0.6197410225868225,3.5461630821228027,-4.283152580261231,1.440377712249756,2.354205369949341,1.58942449092865,#
-1.435693621635437,2.8426735401153564,-5.355136871337891,1.0531005859375,2.415289878845215,1.4550381898880005,#
-2.359323024749756,3.6299118995666495,-6.063412666320801,0.9223793148994446,2.311445951461792,1.3353121280670166,#
-3.2159535884857178,5.536991596221924,-5.986842632293701,0.7733326554298401,2.0463383197784424,1.241241693496704,#
-3.2159535884857178,5.536991596221924,-5.986842632293701,0.6670452356338501,2.002357244491577,1.3023263216018677,#
-4.206582069396973,6.240481376647949,-6.283552646636963,0.7159129977226257,1.8606407642364504,1.2644537687301636,#
-4.864608287811279,6.288337707519531,-6.10887622833252,0.8246437907218933,1.4183871746063232,1.0250016450881958,#
-5.053641319274902,6.396015167236328,-6.001199245452881,0.6438329815864563,1.0286667346954346,0.7660024166107178,#
-4.998606204986572,6.259624004364014,-5.986842632293701,0.5937435030937195,0.8380824327468872,0.6536065340042114,#
-4.998606204986572,6.259624004364014,-5.986842632293701,0.445918470621109,0.4618005454540252,0.3640649616718292,#
-4.874179840087891,6.484549045562744,-6.695117950439453,0.31641885638237,0.3567348122596741,0.2431172132492065,#
-5.084747791290283,6.515655517578125,-6.69990348815918,0.0366508327424526,0.2687727808952331,0.0464243926107883,#
-5.000998973846436,6.003591537475586,-6.999006271362305,-0.0855186134576797,0.1795890927314758,-0.1209477484226226,#
-4.577469348907471,5.443671703338623,-6.735795497894287,-0.1331647038459777,0.0525328628718853,-0.2260134816169738,#
-3.8572301864624015,4.931607723236084,-7.039684295654297,-0.3090887069702148,-0.1893626451492309,-0.4178195297718048,#
-3.8572301864624015,4.931607723236084,-7.039684295654297,-0.5082249045372009,-0.4740174412727356,-0.6291726231575012,#
-3.1345977783203125,4.340579986572266,-7.010970115661621,-0.6401678919792175,-0.624285876750946,-0.767224133014679,#
-2.057827472686768,3.76151704788208,-6.6831536293029785,-0.8148701786994934,-0.999346137046814,-0.929709494113922,#
-1.0767701864242554,2.8426735401153564,-6.719045639038086,-0.919935941696167,-1.4758068323135376,-1.1606097221374512,#
-0.1076770275831222,2.0003998279571533,-6.649653911590576,-0.9773555994033812,-1.764126896858215,-1.3243167400360107,down
-0.1076770275831222,2.0003998279571533,-6.649653911590576,-1.1276240348815918,-2.4458322525024414,-1.5283397436141968,down
0.9332008361816406,1.0600204467773438,-7.781459331512451,-1.1276240348815918,-2.817227363586426,-1.6297403573989868,down
2.2396819591522217,0.7465606331825256,-10.12881851196289,-1.3108781576156616,-3.7225029468536377,-1.8484238386154173,down
4.041477203369141,0.8805587291717529,-13.66062355041504,-1.8557538986206052,-4.988178730010986,-2.120861768722534,down
6.391229152679443,0.1268195956945419,-15.876379013061523,-2.19782829284668,-5.625903129577637,-2.218597173690796,down
9.494720458984377,-1.3974084854125977,-17.058433532714844,-2.844104766845703,-7.190893650054932,-2.4494974613189697,down
9.494720458984377,-1.3974084854125977,-17.058433532714844,-3.263145923614502,-9.069859504699709,-2.6461901664733887,down
22.40160751342773,-4.118047714233398,-21.37508583068848,-3.480607748031616,-9.49012279510498,-2.848991632461548,down
28.926834106445312,-2.945564746856689,-21.750757217407227,-4.231949806213379,-11.52180004119873,-3.144641637802124,down
29.010581970214844,-2.00518536567688,-20.405990600585938,-4.424977779388428,-10.825434684753418,-3.740828514099121,down
37.84727478027344,-4.323830604553223,-22.6839599609375,-4.350454330444336,-11.71727180480957,-4.289369583129883,down
37.84727478027344,-4.323830604553223,-22.6839599609375,-4.6766462326049805,-13.998175621032717,-4.994287014007568,down
46.65525436401367,-3.2997026443481445,-21.224336624145508,-4.697415351867676,-14.468527793884276,-5.688209533691406,down
62.892948150634766,-5.960521221160889,-17.79063606262207,-2.9442837238311768,-15.001187324523926,-6.719319820404053,down
76.33343505859375,0.9044869542121888,-12.626924514770508,-1.5039058923721311,-15.91257095336914,-6.9294514656066895,down
78.34819030761719,3.0652055740356445,-5.575276851654053,-1.27544903755188,-15.872254371643066,-6.477424621582031,down
78.34819030761719,3.0652055740356445,-5.575276851654053,-2.017017602920532,-14.924220085144045,-5.166545867919922,down
70.50212860107422,-2.3090739250183105,-2.612962245941162,-3.088443756103516,-13.832024574279783,-4.0719075202941895,down
62.16553115844727,-10.459028244018556,0.8494520783424377,-4.734066009521484,-11.36786651611328,-2.988264799118042,down
51.25665283203125,-12.260822296142578,2.96949315071106,-4.087789535522461,-8.87194538116455,-2.757364511489868,down
44.09733200073242,-13.366307258605955,8.501699447631836,-3.5111501216888428,-7.559845447540283,-2.549676418304444,down
33.420555114746094,-11.700902938842772,12.890134811401367,-2.199049949645996,-5.506176948547363,-1.9681499004364011,down
33.420555114746094,-11.700902938842772,12.890134811401367,-1.397618532180786,-3.182514190673828,-1.1288456916809082,down
23.56451797485352,-10.44467067718506,12.440284729003906,-1.1496145725250244,-2.1562907695770264,-0.7745543122291565,down
18.91526222229004,-5.840879917144775,11.31565761566162,-0.8796200752258301,-1.321873426437378,0.0965138673782348,down
15.345170974731444,-4.843072891235352,10.53081226348877,-0.8661814332008362,-1.0262233018875122,0.6145123243331909,down
12.210573196411133,-6.714260101318359,9.025726318359377,-1.0005677938461304,-0.7574505805969238,0.7061393857002258,down
12.210573196411133,-6.714260101318359,9.025726318359377,-1.3707412481307983,-0.2883199155330658,0.8344173431396484,down
10.67916774749756,-8.556733131408691,8.14516830444336,-1.2461284399032593,-0.2418954968452453,0.7476770281791687,down
10.40877914428711,-5.402993679046631,6.805188179016113,-0.8405258059501648,-0.2137965410947799,0.4349232316017151,down
9.45164966583252,-2.823530912399292,5.237888813018799,-0.5754181146621704,0.0256555844098329,0.3762818872928619,down
8.346165657043457,-2.234896183013916,3.553341627120972,-0.5167768001556396,0.1698155403137207,0.3359659910202026,down
9.131011009216309,-2.825923442840576,2.3545374870300293,-0.4789042472839355,0.3188622593879699,0.2712161839008331,down
9.131011009216309,-2.825923442840576,2.3545374870300293,-0.1771456897258758,0.1612636744976043,0.0671931952238082,down
10.25324535369873,-2.462214469909668,1.062413215637207,-0.0684148892760276,0.128277912735939,0.0171037223190069,down
9.879963874816896,-1.227518081665039,0.3134597539901733,-0.0513111688196659,0.4886777997016907,0.1734806150197982,#
9.272188186645508,0.1627119481563568,-1.34476637840271,-0.128277912735939,0.7415685653686523,0.3115321099758148,#
9.44447135925293,-0.0885344371199607,-2.455036163330078,-0.3542913794517517,1.031110167503357,0.5473191142082214,#
9.44447135925293,-0.0885344371199607,-2.455036163330078,-0.5302154421806335,0.9382613897323608,0.6792621612548828,#
10.15992546081543,-1.0169496536254885,-1.7443678379058838,-0.549762487411499,0.8050966858863831,0.7085827589035034,#
10.260422706604004,-1.3280165195465088,-1.043270707130432,-0.3994940817356109,0.8026533126831055,0.7525637745857239,#
10.054640769958496,-1.3232309818267822,-0.8805587291717529,-0.2076880484819412,1.360967755317688,0.5717529654502869,#
9.927821159362791,-1.1485549211502075,-0.4402793645858764,-0.0720799788832664,1.641957402229309,0.6365028619766235,#
9.927821159362791,-1.1485549211502075,-0.4402793645858764,0.0537545569241046,1.9889185428619385,0.9480348825454712,#
7.496713638305664,-0.729810893535614,0.7417750358581543,0.0806318372488021,2.571666955947876,1.0983033180236816,#
7.257431030273437,-1.5385849475860596,3.6945178508758554,0.0122169442474842,3.353551149368286,1.0396620035171509,#
21.37030029296875,-3.5748770236968994,5.280959606170654,0.3225273489952087,6.576381206512451,1.3731845617294312,#
18.544376373291016,-2.84506630897522,2.09850549697876,-0.1185043603181839,7.3203935623168945,1.3401988744735718,#
8.193024635314941,-1.00259268283844,4.579862117767334,-2.5179123878479004,3.3511078357696533,1.4513731002807615,#
8.193024635314941,-1.00259268283844,4.579862117767334,-2.3761956691741943,4.611896514892578,3.590559959411621,#
4.460221290588379,-4.264009952545166,5.422136306762695,-1.8997348546981807,5.899562835693359,3.5820083618164062,#
9.18126106262207,-5.627918720245361,7.853243827819824,-1.9388291835784912,2.6168696880340576,2.438502311706543,#
9.133403778076172,-7.482356548309326,7.2813591957092285,-2.8343310356140137,3.711507797241211,2.783020257949829,#
6.297908782958984,-5.879165172576904,7.877171993255615,-2.401851177215576,3.5184803009033203,2.954057216644287,#
6.297908782958984,-5.879165172576904,7.877171993255615,-2.192941665649414,3.4146358966827397,2.783020257949829,#
6.556333541870117,-5.044069766998291,7.77906608581543,-2.2027151584625244,3.3425562381744385,2.783020257949829,#
6.474977493286133,-6.357729434967041,6.52044153213501,-2.103757858276367,3.002924919128418,2.7292654514312744,#
5.905486583709717,-6.580262184143066,6.63051176071167,-1.83132004737854,2.6657373905181885,2.648633480072021,#
5.108676433563232,-6.805188179016113,7.109076023101807,-1.483137130737305,2.557006359100342,2.679175853729248,#
4.7712883949279785,-6.041877269744873,6.431907176971436,-0.5583143830299377,2.3884127140045166,2.6718456745147705,#
4.7712883949279785,-6.041877269744873,6.431907176971436,-0.1331647038459777,2.258913278579712,2.497143507003784,#
4.07258415222168,-5.070391178131104,6.034698486328125,-0.1771456897258758,2.140408754348755,2.3676440715789795,#
3.538984537124634,-5.14456844329834,5.450850009918213,-0.3750602006912231,1.8142162561416624,2.060998678207397,#
2.981456995010376,-5.9030938148498535,4.945964336395264,-0.2333436459302902,1.4440428018569946,1.815437912940979,#
2.0195422172546387,-5.9700927734375,5.034498691558838,0.0916270837187767,1.2974395751953125,1.7763437032699585,#
2.0195422172546387,-5.9700927734375,5.034498691558838,0.9138274788856506,1.0958600044250488,1.7177023887634275,#
1.5720844268798828,-4.3310089111328125,5.422136306762695,1.137397527694702,1.0201148986816406,1.72014582157135,#
1.5912269353866575,-4.764110088348389,5.702096462249756,1.1997039318084717,0.8344173431396484,1.6065282821655271,#
1.497907042503357,-6.063412666320801,5.003392219543457,1.1948171854019165,0.4214845895767212,1.3072130680084229,#
1.2634103298187256,-5.498706817626953,3.902693748474121,1.268118977546692,0.0781884491443634,1.1691615581512451,#
1.6534404754638672,-4.285545349121094,4.390829563140869,1.5515520572662354,-0.4288147687911987,1.1581664085388184,#
1.6534404754638672,-4.285545349121094,4.390829563140869,1.7592401504516602,-0.5717529654502869,1.2742273807525637,#
2.2229323387146,-4.153940200805664,5.553741931915283,1.786117434501648,-0.5204418301582336,1.2620103359222412,#
2.675175428390503,-4.390829563140869,5.285745620727539,1.6761648654937744,-0.6401678919792175,1.1496145725250244,#
3.476771354675293,-4.599005222320557,4.19701099395752,1.6847167015075684,-0.7562289237976074,1.0347752571105957,#
4.132404804229736,-4.632504463195801,3.184847116470337,1.9730366468429563,-0.910162389278412,0.634059488773346,#
4.132404804229736,-4.632504463195801,3.184847116470337,2.2955639362335205,-0.971247136592865,0.2638860046863556,#
5.204389572143555,-2.9551358222961426,3.266202926635742,2.313889265060425,-0.9358179569244384,0.0940704718232154,#
7.085147857666016,-0.3326023519039154,3.854837417602539,1.7042638063430786,-0.6719319820404053,-0.2199050188064575,#
8.25284481048584,-1.7204395532608032,4.919642925262451,1.148392915725708,0.0207688063383102,-0.1490467190742492,#
8.109275817871094,-4.185047149658203,5.991628170013428,1.2131426334381104,0.2394521236419677,-0.0415376126766204,#
8.109275817871094,-4.185047149658203,5.991628170013428,1.2229161262512207,0.256555825471878,0.0940704718232154,#
9.023333549499512,-3.94097900390625,5.97727108001709,1.2106993198394775,0.2724378705024719,0.0109952501952648,#
8.590232849121094,-2.4957141876220703,5.828916072845459,1.313321590423584,0.2932066619396209,-0.2980934381484985,#
8.702695846557617,-1.8209381103515625,6.424728870391846,1.1019684076309204,0.2785463333129883,-0.2467822879552841,#
8.970691680908203,-3.4719858169555664,7.293323516845703,0.893058717250824,0.2724378705024719,-0.2162399291992187,#
9.449256896972656,-3.802195072174072,7.29810905456543,0.818535327911377,0.1502684205770492,-0.1966928243637085,#
9.449256896972656,-3.802195072174072,7.29810905456543,0.9773555994033812,0.0378725305199623,-0.2309002727270126,#
9.463613510131836,-3.1896328926086426,6.920042991638184,1.0787562131881714,-0.0427593067288398,-0.2541124522686004,#
9.231510162353516,-3.1824538707733154,7.752745151519775,1.0054545402526855,-0.0439810007810592,-0.1698155403137207,#
8.47059154510498,-4.01754903793335,9.33440113067627,0.8222004175186157,0.0842969194054603,-0.0158820282667875,#
8.056633949279785,-4.764110088348389,9.949356079101562,0.7989881634712219,0.0965138673782348,0.0500894747674465,#
8.056633949279785,-4.764110088348389,9.949356079101562,0.6755970120429993,0.0012216945178806,-0.003665083553642,#
7.477570533752441,-4.02472734451294,9.42772102355957,0.605960488319397,-0.0794101431965828,-0.0122169442474842,#
7.149754047393799,-3.5294132232666016,9.12383270263672,0.4178195297718048,-0.0549762547016143,0.0256555844098329,#
6.702296257019043,-3.565305471420288,9.882357597351074,0.0561979450285434,0.1417165547609329,0.0904053896665573,#
6.001199245452881,-4.886143684387207,10.657631874084473,-0.0855186134576797,0.3359659910202026,0.1685938388109207,#
4.893322467803955,-4.536791324615479,10.17188835144043,-0.031764056533575,0.4080459475517273,0.2736595571041107,#
4.893322467803955,-4.536791324615479,10.17188835144043,0.130721315741539,0.3494046330451965,0.2663294076919555,#
3.828516006469727,-3.91705060005188,9.578469276428224,0.1942494213581085,0.3323009014129638,0.2883199155330658,#
3.170490026473999,-3.7878382205963135,9.659825325012209,0.2553341388702392,0.1918060332536697,0.2687727808952331,#
3.5700912475585938,-3.1345977783203125,10.15992546081543,0.2919849753379822,0.1038440242409706,0.2797680497169494,#
3.7878382205963135,-2.469392776489258,10.346564292907717,0.4202629029750824,0.0085518611595034,0.2516690790653229,#
3.7878382205963135,-2.469392776489258,10.346564292907717,0.7598939538002014,0.1221694499254226,0.2064663618803024,#
3.359522819519043,-2.2085752487182617,9.597611427307127,0.8771765828132629,0.2150182276964187,0.2028012871742248,#
3.242274522781372,-3.16331148147583,9.396614074707031,0.684148907661438,0.2406738102436065,0.1832541674375534,#
3.086741209030152,-1.6247265338897705,9.69093132019043,0.5974085927009583,0.3506263196468353,0.0219905003905296,#
2.029113531112671,-0.6221339106559753,9.430113792419434,0.5644228458404541,0.4666872918605804,-0.0439810007810592,#
2.029113531112671,-0.6221339106559753,9.430113792419434,0.3775035738945007,0.517998456954956,-0.1319430023431778,#
1.2514461278915403,-0.9810572862625122,9.212367057800291,0.1368297785520553,0.3823903799057007,-0.1575985848903656,#
1.4213367700576782,-1.4548362493515017,8.764908790588379,0.0488677769899368,0.2907632887363434,-0.1795890927314758,#
