accX,accY,accZ,gyrX,gyrY,gyrZ,annotation
8.492127418518066,-0.6819544434547424,1.241874933242798,0.4007157981395721,-0.5204418301582336,-0.4471401870250702,#
8.681159973144531,-1.0552347898483276,0.5886343717575073,0.0476460866630077,-0.3677300214767456,-0.4104893505573272,#
9.214759826660156,-1.5649060010910034,0.1842473447322845,-0.5534276366233826,-0.0378725305199623,-0.3750602006912231,#
9.635896682739258,-1.9525433778762815,-0.0358923412859439,-1.007897973060608,0.2626643180847168,-0.3054236173629761,#
9.68375301361084,-2.2372891902923584,-0.1651047617197036,-1.1850436925888062,0.4141544103622436,-0.2553341388702392,#
9.674181938171388,-2.462214469909668,-0.1579262912273407,-1.534448266029358,0.7220214009284973,-0.0989572554826736,#
9.674181938171388,-2.462214469909668,-0.1579262912273407,-1.817881464958191,0.9321528673171996,0.0513111688196659,#
9.90867805480957,-2.84506630897522,-0.0334995165467262,-1.907065153121948,0.9736905097961426,0.1136175915598869,#
10.078569412231444,-2.950350284576416,0.138783723115921,-1.979145050048828,0.9529216885566713,0.2199050188064575,#
10.040283203125,-3.1202406883239746,0.4666004180908203,-1.935163974761963,0.84541255235672,0.3200839459896087,#
9.506684303283691,-3.2781667709350586,0.8542376756668091,-1.8496454954147337,0.7611156702041626,0.3518480062484741,#
9.506684303283691,-3.2781667709350586,0.8542376756668091,-1.593089580535889,0.5326588153839111,0.3860554695129394,#
8.853443145751953,-3.517449140548706,1.2681961059570312,-1.4049487113952637,0.4043808877468109,0.388498842716217,#
8.774479866027832,-3.838087558746338,1.5529417991638184,-0.9272661209106444,0.0965138673782348,0.333522617816925,#
9.162117958068848,-3.742374420166016,1.4668002128601074,-0.3848337531089782,-0.2773246467113495,0.2247917801141739,#
9.152545928955078,-3.103491306304932,1.3136597871780396,-0.100178949534893,-0.4190412163734436,0.1771456897258758,#
8.951549530029297,-2.560320377349853,1.160519003868103,0.4288147687911987,-0.6084038615226746,0.1221694499254226,#
8.951549530029297,-2.560320377349853,1.160519003868103,0.7843278050422668,-0.6792621612548828,0.0830752253532409,#
8.870193481445312,-2.483749866485596,1.1724830865859983,0.901610553264618,-0.6939224600791931,0.0671931952238082,#
8.85105037689209,-2.4502503871917725,0.9236294627189636,0.9932376146316528,-0.6658235192298889,0.0757450610399246,#
9.09511947631836,-2.1846470832824707,0.6532405614852905,0.9969027042388916,-0.6365028619766235,0.0781884491443634,#
9.561718940734863,-1.8592231273651123,0.3469592928886413,0.9223793148994446,-0.5595360994338989,0.1038440242409706,#
9.561718940734863,-1.8592231273651123,0.3469592928886413,0.7769976854324341,-0.4495835602283478,0.1502684205770492,#
9.875179290771484,-1.8185452222824097,0.4426721632480621,0.7000309228897095,-0.3689517080783844,0.175924003124237,#
10.217352867126465,-1.9573287963867188,0.787238597869873,0.5815265774726868,-0.2186833024024963,0.2174616158008575,#
10.427922248840332,-2.060220241546631,0.7537391781806946,0.5436540246009827,-0.130721315741539,0.2602209150791168,#
10.861021995544434,-2.007578134536743,0.5048855543136597,0.5473191142082214,-0.1038440242409706,0.2834331095218658,#
10.861021995544434,-2.007578134536743,0.5048855543136597,0.5570926666259766,-0.0586413368582725,0.3151971697807312,#
11.3300142288208,-2.03629207611084,0.6771688461303711,0.5986303091049194,-0.0806318372488021,0.3176405727863312,#
11.011770248413086,-1.964507341384888,0.8087739944458008,0.6193991303443909,-0.0623064190149307,0.3323009014129638,#
9.841679573059082,-1.5314064025878906,0.6675975918769836,0.6829272508621216,0.0586413368582725,0.4214845895767212,#
8.999405860900879,-1.1700903177261353,0.4043869972229004,0.6707102656364441,0.1111741960048675,0.4825693070888519,#
8.683552742004395,-0.9475577473640442,0.0622133873403072,0.601073682308197,0.1270562261343002,0.5754181146621704,#
8.683552742004395,-0.9475577473640442,0.0622133873403072,0.4727957546710968,0.1026223376393318,0.6633800864219666,#
8.992227554321289,-0.8877372145652771,-0.1124626696109771,0.3799469769001007,0.1038440242409706,0.7061393857002258,#
9.57607650756836,-0.9595218896865844,-0.2799602448940277,0.1979145109653473,0.1038440242409706,0.7379034161567688,#
9.688538551330566,-0.8135597109794617,-0.5240281224250793,0.0415376126766204,0.1600419729948043,0.7317950129508972,#
9.664610862731934,-0.9978070855140686,-0.5934200286865234,-0.0207688063383102,0.2235700935125351,0.7183563709259033,#
9.664610862731934,-0.9978070855140686,-0.5934200286865234,-0.0928487852215766,0.3237490355968475,0.6426112651824951,#
9.588040351867676,-1.5026925802230835,-0.5359922647476196,-0.1258345395326614,0.3530696928501129,0.5900784730911255,#
9.554540634155272,-1.4859429597854614,-0.2847459018230438,-0.1844758540391922,0.3750602006912231,0.4789042472839355,#
8.7505521774292,-1.2705888748168943,-0.1818545311689376,-0.2162399291992187,0.3713951408863067,0.3982723951339721,#
8.097311973571777,-1.3639088869094849,-0.0669990330934524,-0.200357899069786,0.3860554695129394,0.3726168274879455,#
8.535198211669922,-1.6319050788879397,-0.2225324809551239,-0.2076880484819412,0.3151971697807312,0.2968717515468597,#
8.535198211669922,-1.6319050788879397,-0.2225324809551239,-0.2504473626613617,0.0989572554826736,0.1856975704431533,#
9.63828945159912,-1.765903115272522,-0.7417750358581543,-0.261442631483078,-0.0207688063383102,0.1221694499254226,#
10.514062881469728,-1.9070796966552732,-1.368694543838501,-0.2492256760597229,-0.1319430023431778,0.0097735561430454,#
10.901700019836426,-2.062613010406494,-1.7754744291305542,-0.1795890927314758,-0.069636583328247,-0.1075091138482093,#
10.954340934753418,-2.476571559906006,-1.8855443000793457,-0.1539334952831268,-0.0134386392310261,-0.1685938388109207,#
10.954340934753418,-2.476571559906006,-1.8855443000793457,-0.1014006435871124,0.1148392781615257,-0.2834331095218658,#
10.73420238494873,-2.7828526496887207,-1.4093725681304932,-0.0806318372488021,0.1710372269153595,-0.3371876776218414,#
10.07378387451172,-3.053241729736328,-0.9619146585464478,-0.0146603342145681,0.2309002727270126,-0.4263713657855987,#
9.138189315795898,-3.043670415878296,-0.519242525100708,0.0476460866630077,0.2309002727270126,-0.4605787992477417,#
8.807979583740234,-3.2446675300598145,-0.114855483174324,0.0891837030649185,0.199136197566986,-0.4691306948661804,#
8.807979583740234,-3.2446675300598145,-0.114855483174324,0.175924003124237,0.0256555844098329,-0.4764608442783355,#
9.10229778289795,-3.314059257507324,0.2153540551662445,0.2919849753379822,-0.21135313808918,-0.4532486498355865,#
9.463613510131836,-3.1130621433258057,0.0909272655844688,0.3799469769001007,-0.3066453039646148,-0.4288147687911987,#
9.351150512695312,-2.988635540008545,-0.0263210479170084,0.549762487411499,-0.4178195297718048,-0.3408527672290802,#
9.44447135925293,-2.7661027908325195,-0.12921242415905,0.6132906079292297,-0.448361873626709,-0.2895416021347046,#
9.55214786529541,-2.763710021972656,-0.2129612118005752,0.6646018028259277,-0.4764608442783355,-0.2052446752786636,#
9.55214786529541,-2.763710021972656,-0.2129612118005752,0.6597149968147278,-0.4471401870250702,-0.1429382413625717,#
9.463613510131836,-2.617748022079468,-0.0334995165467262,0.6487197875976562,-0.4056025743484497,-0.1148392781615257,#
9.42772102355957,-2.541177749633789,0.1363908797502517,0.6157339811325073,-0.2858764827251434,-0.0525328628718853,#
9.616753578186035,-2.57228422164917,0.1722832471132278,0.574196457862854,-0.199136197566986,-0.0109952501952648,#
9.686145782470703,-2.3736801147460938,0.117248311638832,0.546097457408905,-0.1832541674375534,0.0024433890357613,#
9.686145782470703,-2.3736801147460938,0.117248311638832,0.4471401870250702,-0.100178949534893,0.0513111688196659,#
9.62393283843994,-1.9932212829589844,-0.2009970992803573,0.3726168274879455,-0.0256555844098329,0.0794101431965828,#
9.757929801940918,-1.8113667964935305,-0.4450649619102478,0.1466033309698104,0.1062874197959899,0.130721315741539,#
10.076176643371582,-1.868794322013855,-0.5694918036460876,-0.1539334952831268,0.1905843466520309,0.1832541674375534,#
10.435098648071287,-2.177468776702881,-0.1507478207349777,-0.2883199155330658,0.2150182276964187,0.1954711079597473,#
10.413564682006836,-2.414358139038086,0.1842473447322845,-0.4740174412727356,0.2724378705024719,0.1918060332536697,#
10.413564682006836,-2.414358139038086,0.1842473447322845,-0.494786262512207,0.3139754831790924,0.1832541674375534,#
9.698110580444336,-2.502892255783081,0.318245381116867,-0.463022232055664,0.3090887069702148,0.1771456897258758,#
9.011369705200195,-2.313859462738037,0.397208571434021,-0.3762818872928619,0.2797680497169494,0.1808107793331146,#
8.788837432861328,-2.407179594039917,0.4235295951366424,-0.2504473626613617,0.1673721522092819,0.1710372269153595,#
9.08554744720459,-2.2755744457244877,0.3086740970611572,-0.1832541674375534,0.0879620015621185,0.1575985848903656,#
9.08554744720459,-2.2755744457244877,0.3086740970611572,-0.0085518611595034,-0.0598630309104919,0.1343863904476165,#
9.367900848388672,-1.9262222051620483,0.2177468687295913,0.0867403075098991,-0.1111741960048675,0.1221694499254226,#
9.674181938171388,-1.7515461444854736,-0.0430708117783069,0.2492256760597229,-0.152711808681488,0.0867403075098991,#
9.750752449035645,-1.648654818534851,-0.2225324809551239,0.3274141252040863,-0.152711808681488,0.0378725305199623,#
9.69093132019043,-1.7443678379058838,-0.2991028428077698,0.3176405727863312,-0.1209477484226226,0.0122169442474842,#
9.535398483276367,-1.8951154947280884,-0.1818545311689376,0.2333436459302902,-0.0122169442474842,-0.0342074446380138,#
9.535398483276367,-1.8951154947280884,-0.1818545311689376,0.1087308079004287,0.0378725305199623,-0.0830752253532409,#
9.645467758178713,-1.8185452222824097,-0.028713870793581,0.0549762547016143,0.0329857505857944,-0.0977355539798736,#
9.375079154968262,-1.7682960033416748,0.0167497582733631,-0.0354291386902332,0.0476460866630077,-0.0904053896665573,#
9.33440113067627,-1.902293920516968,0.0813559740781784,-0.0586413368582725,0.0525328628718853,-0.0781884491443634,#
9.35832977294922,-1.9334007501602173,-0.0334995165467262,-0.1160609796643257,0.0195471122860908,-0.0561979450285434,#
9.35832977294922,-1.9334007501602173,-0.0334995165467262,-0.155155211687088,-0.0122169442474842,-0.0488677769899368,#
9.449256896972656,-1.887937068939209,-0.0765703245997428,-0.1698155403137207,-0.0219905003905296,-0.0549762547016143,#
9.461220741271973,-1.9621145725250244,-0.0550349205732345,-0.1905843466520309,-0.0048867780715227,-0.0586413368582725,#
9.372685432434082,-2.038684844970703,0.0358923412859439,-0.1832541674375534,0.0354291386902332,-0.0549762547016143,#
9.34875774383545,-2.09850549697876,0.2177468687295913,-0.1685938388109207,0.0488677769899368,-0.0525328628718853,#
9.34875774383545,-2.09850549697876,0.2177468687295913,-0.1343863904476165,0.031764056533575,-0.0513111688196659,#
9.262616157531738,-2.0243279933929443,0.4522434771060943,-0.1111741960048675,0.0085518611595034,-0.0537545569241046,#
9.305686950683594,-2.076970100402832,0.3134597539901733,-0.0500894747674465,-0.0390942245721817,-0.0439810007810592,#
9.422935485839844,-1.8975083827972408,0.260817676782608,-0.0195471122860908,-0.0745233595371246,-0.0342074446380138,#
9.68375301361084,-1.9453648328781128,0.3038884699344635,-0.0134386392310261,-0.0855186134576797,-0.031764056533575,#
9.89432144165039,-1.9908283948898315,0.4354937374591827,-0.0097735561430454,-0.0977355539798736,-0.0366508327424526,#
9.89432144165039,-1.9908283948898315,0.4354937374591827,-0.007330167107284,-0.0952921733260154,-0.0378725305199623,#
10.054640769958496,-2.069791555404663,0.6675975918769836,-0.0012216945178806,-0.1038440242409706,-0.0452026948332786,#
10.045069694519045,-2.062613010406494,0.8087739944458008,0.0378725305199623,-0.1172826737165451,-0.0537545569241046,#
9.753145217895508,-1.9716858863830569,0.8470591902732849,0.0952921733260154,-0.1136175915598869,-0.0537545569241046,#
9.68375301361084,-1.832902193069458,1.06480610370636,0.1209477484226226,-0.1197260618209838,-0.0561979450285434,#
9.68375301361084,-1.832902193069458,1.06480610370636,0.1356080919504165,-0.1466033309698104,-0.0623064190149307,#
9.66221809387207,-1.6869399547576904,1.227518081665039,0.1392731666564941,-0.1502684205770492,-0.0574196390807628,#
9.647860527038574,-1.4572290182113647,1.277767300605774,0.1502684205770492,-0.1698155403137207,-0.0574196390807628,#
9.571290969848633,-1.4763716459274292,1.1653046607971191,0.155155211687088,-0.1502684205770492,-0.0390942245721817,#
9.547362327575684,-1.4668002128601074,1.155733346939087,0.130721315741539,-0.1209477484226226,-0.031764056533575,#
9.848857879638672,-1.7132610082626345,1.3375877141952517,0.0061084721237421,-0.0561979450285434,-0.040315918624401,#
9.848857879638672,-1.7132610082626345,1.3375877141952517,-0.1209477484226226,-0.0207688063383102,-0.0684148892760276,#
9.980463027954102,-1.7898313999176023,1.3184452056884766,-0.1649287492036819,0.0048867780715227,-0.0806318372488021,#
9.913464546203612,-1.6917256116867063,1.4189438819885254,-0.1832541674375534,0.0855186134576797,-0.0891837030649185,#
10.03549861907959,-1.6869399547576904,1.3902300596237185,-0.1380514800548553,0.1441599577665329,-0.0842969194054603,#
10.097711563110352,-1.6127625703811646,1.4069796800613403,-0.1221694499254226,0.1624853760004043,-0.0818535313010215,#
10.097711563110352,-1.6127625703811646,1.4069796800613403,-0.1514901220798492,0.2284568697214126,-0.0476460866630077,#
10.088139533996582,-1.584048628807068,1.4787644147872925,-0.1881409436464309,0.2773246467113495,-0.0329857505857944,#
10.095318794250488,-1.6534404754638672,1.380658507347107,-0.3384093642234802,0.3445178270339966,-0.0329857505857944,#
10.116853713989258,-1.6199408769607544,1.6175479888916016,-0.4813476204872131,0.3726168274879455,0.0158820282667875,#
10.155139923095703,-1.284945726394653,1.84965181350708,-0.5082249045372009,0.4019374847412109,0.031764056533575,#
10.155139923095703,-1.284945726394653,1.84965181350708,-0.5326588153839111,0.5070031881332397,0.1062874197959899,#
10.28195858001709,-1.1940184831619265,2.227717876434326,-0.7049177289009094,0.7440119385719299,0.2431172132492065,#
10.423135757446287,-0.9332008361816406,3.45045018196106,-0.9309312105178832,0.8820634484291077,0.3115321099758148,#
11.188838958740234,-0.2416750937700271,5.056034088134766,-1.5649906396865845,1.189930438995361,0.4092676639556885,#
11.856435775756836,-0.1124626696109771,5.460421085357666,-1.924168825149536,1.369519591331482,0.4813476204872131,#
12.378071784973145,-1.031306505203247,7.267002105712891,-2.9491703510284424,1.793447494506836,0.6474980711936951,#
12.378071784973145,-1.031306505203247,7.267002105712891,-4.179416656494141,2.3334364891052246,0.9590301513671876,#
12.5742826461792,-3.3020951747894287,7.465606689453125,-4.685198783874512,2.563115119934082,1.1264023780822754,#
12.172287940979004,-6.077769756317139,6.680760860443115,-5.617351531982422,2.8221142292022705,1.6517308950424194,#
10.978270530700684,-7.781459331512451,6.853044033050537,-6.404122352600098,3.335226058959961,2.2491395473480225,#
10.753345489501951,-10.222138404846191,5.642275810241699,-6.666786670684815,3.489159345626831,2.546011447906494,#
10.753345489501951,-10.222138404846191,5.642275810241699,-6.471315860748291,3.513593435287476,3.098217248916626,#
10.920842170715332,-11.612367630004885,4.938785552978516,-6.200099468231201,3.5563526153564453,3.3633251190185547,#
11.097911834716797,-11.169696807861328,4.3142595291137695,-5.638119697570801,3.74815845489502,3.76404070854187,#
11.169696807861328,-10.497312545776367,2.4813570976257324,-5.190979957580566,3.635762929916382,4.075572967529297,#
10.499706268310549,-10.703095436096191,1.8305093050003047,-5.156772613525391,3.5539093017578125,4.2221760749816895,#
9.858428955078123,-10.65523910522461,1.428515076637268,-4.889221668243408,3.3254523277282715,4.376109600067139,#
9.858428955078123,-10.65523910522461,1.428515076637268,-4.65099048614502,2.883198976516724,4.47750997543335,#
9.750752449035645,-10.411171913146973,0.1076770275831222,-4.340680599212647,2.6742892265319824,4.448189735412598,#
8.614161491394043,-9.164510726928713,-1.0456634759902954,-3.78358793258667,2.389634370803833,4.357784271240234,#
7.683353424072266,-8.219346046447754,-0.5359922647476196,-3.057901382446289,2.1245267391204834,4.290590763092041,#
6.805188179016113,-6.982256412506104,-1.007378339767456,-2.690171241760254,1.987696886062622,4.207515716552734,#
6.805188179016113,-6.982256412506104,-1.007378339767456,-2.102536201477051,1.6883817911148071,3.9643983840942383,#
5.565705299377441,-6.51326322555542,-1.3232309818267822,-1.7873390913009644,1.492910623550415,3.870327949523926,#
4.649254322052002,-6.510870456695557,-2.610569477081299,-1.0640958547592163,1.0396620035171509,3.56123948097229,#
4.0079779624938965,-6.168696403503418,-3.90987229347229,-0.494786262512207,0.7941014170646667,3.1898443698883057,#
3.486342430114746,-5.139782905578613,-3.682554006576538,-0.2773246467113495,0.7342383861541748,2.978491306304932,#
2.919243574142456,-4.500899314880371,-3.263810157775879,0.1258345395326614,0.6646018028259277,2.583883762359619,#
2.919243574142456,-4.500899314880371,-3.263810157775879,0.5204418301582336,0.7354600429534912,2.2576913833618164,#
1.9046868085861208,-5.443671703338623,-3.3475589752197266,0.6755970120429993,0.6975875496864319,2.1184182167053223,#
1.7347965240478516,-5.860023021697998,-3.936193227767944,0.9834640026092528,0.4960079491138458,1.878966212272644,#
2.203789472579956,-6.283552646636963,-4.256831645965576,1.068982720375061,0.4043808877468109,1.7629051208496094,#
2.249253273010254,-5.953342437744141,-3.950549840927124,1.200925588607788,0.282211422920227,1.5503302812576294,#
2.249253273010254,-5.953342437744141,-3.950549840927124,1.227802872657776,0.2345653474330902,1.3035480976104736,#
1.4548362493515017,-5.003392219543457,-3.90987229347229,1.1300673484802246,0.287098228931427,1.2314679622650146,#
0.0502492748200893,-5.962913990020752,-4.082155227661133,0.634059488773346,0.3115321099758148,1.1117420196533203,#
-0.6317051649093628,-7.015756130218506,-3.680161237716675,0.1185043603181839,0.0207688063383102,0.95658677816391,#
-1.3112668991088867,-7.329216003417969,-3.706482172012329,-0.0158820282667875,-0.1502684205770492,0.8747332096099854,#
-1.3112668991088867,-7.329216003417969,-3.706482172012329,0.0977355539798736,-0.3689517080783844,0.6584933400154114,#
-1.2969098091125488,-6.379265785217285,-4.07258415222168,0.3494046330451965,-0.4569137394428253,0.577861487865448,#
-0.8805587291717529,-5.491527557373047,-4.642076015472412,0.7660024166107178,-0.5241069197654724,0.4288147687911987,#
-0.5096712112426758,-6.570690631866455,-5.410171985626221,0.9236010909080504,-0.6352811455726624,0.287098228931427,#
0.4737788736820221,-7.427321434020996,-7.300501823425293,0.9077189564704896,-0.7782194018363953,0.2186833024024963,#
1.5672988891601562,-7.994420051574707,-9.253045082092283,0.652384877204895,-1.1569446325302124,0.0598630309104919,#
1.5672988891601562,-7.994420051574707,-9.253045082092283,0.1685938388109207,-1.538113355636597,-0.0989572554826736,left
3.0652055740356445,-8.34855842590332,-10.74138069152832,-0.1014006435871124,-1.783673882484436,-0.1905843466520309,left
3.8572301864624015,-7.767102241516113,-11.94497013092041,-0.6658235192298889,-2.245474576950073,-0.3396310806274414,left
5.333601474761963,-7.999206066131592,-13.2777738571167,-1.1251806020736694,-2.941840171813965,-0.3591781854629516,left
6.4079790115356445,-9.35832977294922,-15.71127223968506,-1.3426421880722046,-3.403640985488892,-0.4190412163734436,left
6.4079790115356445,-9.35832977294922,-15.71127223968506,-1.747023105621338,-4.2368364334106445,-0.5876350998878479,left
8.760124206542969,-11.629117965698242,-16.716259002685547,-2.310224294662476,-5.80793571472168,-0.9773555994033812,left
11.949756622314451,-11.990432739257812,-14.904891967773438,-2.5875487327575684,-7.2104411125183105,-1.290109395980835,left
14.316258430480955,-13.7108736038208,-13.404592514038086,-2.520355701446533,-7.965447902679443,-1.4342693090438845,left
16.718650817871094,-14.110475540161133,-10.966304779052734,-2.340766429901123,-9.454692840576172,-1.572320818901062,left
17.565710067749023,-14.876177787780762,-9.93260669708252,-1.766570210456848,-10.816883087158203,-1.571099042892456,left
17.565710067749023,-14.876177787780762,-9.93260669708252,-1.7250326871871948,-11.580442428588867,-1.4440428018569946,left
18.36252212524414,-14.912071228027344,-10.088139533996582,-2.0267910957336426,-13.281041145324709,-1.0983033180236816,left
24.21536445617676,-21.037694931030277,-6.613761901855469,-2.3212194442749023,-14.998743057250977,-0.8869501948356628,left
23.91386985778809,-24.612573623657227,-9.128618240356444,-2.170951128005981,-15.601038932800291,-1.115407109260559,left
22.805992126464844,-18.96072769165039,-14.5675048828125,-1.0103412866592407,-15.131908416748049,-1.1386191844940186,left
22.805992126464844,-18.96072769165039,-14.5675048828125,-0.1392731666564941,-13.9126558303833,-0.9907942414283752,left
26.82593536376953,-19.111473083496094,-7.800601959228516,0.6707102656364441,-11.460715293884276,-0.4520269632339477,left
27.10350227355957,-21.360727310180664,3.3092737197875977,1.012784719467163,-9.46324634552002,0.0952921733260154,left
22.67438697814941,-14.902499198913574,4.845465660095215,1.30476975440979,-8.412588119506836,0.3738385140895843,left
20.21695709228516,-9.434900283813477,3.641876220703125,1.413500428199768,-6.619141101837158,0.836860716342926,left
20.21695709228516,-9.434900283813477,3.641876220703125,0.6768187284469604,-4.946640968322754,1.2937743663787842,left
17.8743839263916,-6.410372257232666,3.5270204544067383,0.2247917801141739,-4.075572967529297,1.4391560554504397,left
14.55793285369873,-6.943971633911133,3.596412420272827,-0.517998456954956,-2.494700193405152,1.5686556100845337,left
11.229516983032228,-8.96112060546875,4.271188735961914,-0.7537854909896851,-1.81177282333374,1.5564388036727903,left
7.077969074249268,-10.602598190307615,4.505684852600098,-0.7696675062179565,-0.6450546979904175,1.237576603889465,left
2.4981069564819336,-10.40638542175293,3.3092737197875977,-0.3542913794517517,-0.0109952501952648,0.9150491952896118,left
2.4981069564819336,-10.40638542175293,3.3092737197875977,-0.0635281130671501,0.0842969194054603,0.6914790868759155,left
-0.5718846321105957,-9.717252731323242,1.574477195739746,0.2932066619396209,-0.3371876776218414,0.2455605864524841,left
-0.5766702890396118,-8.513663291931152,1.1868400573730469,0.2895416021347046,-0.9700254201889038,0.0610847249627113,left
0.696311354637146,-8.236095428466797,2.25403904914856,0.2712161839008331,-1.0506572723388672,0.0232121963053941,left
0.8135597109794617,-8.01356315612793,2.912065029144287,0.2370087206363678,-0.8209787011146545,0.0671931952238082,left
0.8135597109794617,-8.01356315612793,2.912065029144287,0.2186833024024963,-0.6401678919792175,0.1637070626020431,left
-0.0430708117783069,-7.755138397216797,2.5292134284973145,0.0757450610399246,-0.3481829464435577,0.2064663618803024,left
-0.8374879360198975,-7.630711555480957,1.9453648328781128,-0.0488677769899368,-0.1343863904476165,0.2028012871742248,left
-1.0671988725662231,-7.724031925201416,1.6965112686157229,-0.130721315741539,-0.0561979450285434,0.2211267054080963,left
-1.3232309818267822,-8.279166221618652,1.8903299570083616,-0.2064663618803024,0.1319430023431778,0.2296785563230514,left
-1.3974084854125977,-8.740981101989746,2.062613010406494,-0.2028012871742248,0.3555130958557129,0.2089097648859024,left
-1.3974084854125977,-8.740981101989746,2.062613010406494,-0.1856975704431533,0.4410317242145538,0.1832541674375534,left
-1.0049854516983032,-9.384650230407717,1.9669002294540403,-0.1343863904476165,0.5595360994338989,0.0977355539798736,#
-0.7274181246757507,-9.116654396057127,1.8448662757873533,-0.1466033309698104,0.707361102104187,0.0256555844098329,#
-0.3637090623378753,-9.241080284118652,1.3710873126983645,-0.1869192570447921,0.7806627750396729,0.0024433890357613,#
-0.3780659735202789,-9.77946662902832,1.026520848274231,-0.2370087206363678,0.9333745837211608,-0.0256555844098329,#
-0.3780659735202789,-9.77946662902832,1.026520848274231,-0.2296785563230514,1.035996913909912,-0.0366508327424526,#
-0.7657032012939453,-10.50209903717041,0.5934200286865234,-0.1160609796643257,1.233911395072937,-0.1038440242409706,#
-0.9882357716560364,-10.85862922668457,0.1579262912273407,0.0891837030649185,1.2265812158584597,-0.1734806150197982,#
-0.7513462901115417,-10.174281120300291,-0.0167497582733631,0.1588202863931656,1.1935955286026,-0.1893626451492309,#
-0.4833501875400543,-9.975677490234377,-0.1651047617197036,0.2431172132492065,1.196038842201233,-0.1893626451492309,#
-0.3732803165912628,-10.061819076538086,-0.114855483174324,0.2858764827251434,1.2632319927215576,-0.1795890927314758,#
-0.3732803165912628,-10.061819076538086,-0.114855483174324,0.2345653474330902,1.2742273807525637,-0.1698155403137207,#
-0.1363908797502517,-9.853643417358398,0.0406779870390892,0.3017585575580597,1.240019917488098,-0.1478250324726104,#
0.8039883971214294,-9.650253295898438,0.2632104754447937,0.2968717515468597,1.2229161262512207,-0.1368297785520553,#
1.835294842720032,-9.485149383544922,0.787238597869873,0.2699944972991943,1.266897201538086,-0.1685938388109207,#
2.8283162117004395,-9.899106979370115,1.4452648162841797,0.2724378705024719,1.456259846687317,-0.2125748395919799,#
2.8283162117004395,-9.899106979370115,1.4452648162841797,0.261442631483078,1.5320048332214355,-0.2528907656669616,#
4.139583110809326,-9.415757179260254,2.263610363006592,0.2651077210903168,1.766570210456848,-0.2968717515468597,#
5.436492443084717,-9.619147300720217,2.050648927688598,0.3310791850090027,2.2405877113342285,-0.3970507085323334,#
6.62333345413208,-11.148160934448242,1.5074783563613892,0.3994940817356109,2.539902687072754,-0.4373666048049927,#
7.695317268371582,-13.103096961975098,1.7730815410614014,0.6389462351799011,3.224051713943481,-0.53143709897995,#
7.695317268371582,-13.103096961975098,1.7730815410614014,0.9688037633895874,3.919195890426636,-0.7415685653686523,#
8.233702659606934,-14.419148445129396,1.3471590280532837,1.0335536003112793,4.275930881500244,-0.8112051486968994,#
8.432307243347168,-13.30409336090088,0.6843472719192505,1.068982720375061,5.063923358917236,-0.8637380003929138,#
8.070990562438965,-13.773086547851562,-0.519242525100708,1.0811996459960938,5.462195873260498,-0.8955020904541016,#
7.762316703796387,-15.361920356750488,-0.9212367534637452,1.0531005859375,6.167113780975342,-0.9333745837211608,#
7.855636119842529,-16.56311798095703,-1.7324036359786987,1.3243167400360107,6.559277534484863,-1.0286667346954346,#
7.855636119842529,-16.56311798095703,-1.7324036359786987,1.5747642517089844,6.7132110595703125,-1.1105202436447144,#
7.848458290100098,-16.409976959228516,-2.699103832244873,2.42017674446106,7.205554485321045,-1.3120999336242676,#
7.70249605178833,-16.280765533447266,-3.239881753921509,3.092108726501465,7.539076805114746,-1.5613255500793457,#
7.487142086029053,-14.634504318237305,-3.778266668319702,3.313235282897949,7.675906181335449,-1.6004197597503662,#
7.262216091156006,-15.479169845581056,-4.47697114944458,3.253372430801392,7.7602033615112305,-1.6578394174575806,#
7.262216091156006,-15.479169845581056,-4.47697114944458,2.9149630069732666,7.771198272705078,-1.6529526710510254,#
6.687938690185547,-14.947962760925291,-4.914857387542725,2.574110269546509,7.78708028793335,-1.501462459564209,#
5.065605640411377,-14.191831588745115,-4.761716842651367,2.4079599380493164,7.532968044281006,-1.3084348440170288,#
3.845265865325928,-13.337594032287598,-4.453042984008789,2.2686867713928223,7.342383861541748,-1.2326897382736206,#
3.2039895057678223,-12.519248008728027,-6.697510242462158,1.858197331428528,7.331388473510742,-1.0983033180236816,#
1.442872166633606,-11.53579807281494,-8.12123966217041,0.9089407324790956,7.717443943023682,-1.0066763162612915,#
1.442872166633606,-11.53579807281494,-8.12123966217041,0.7818844318389893,7.607491970062256,-0.8551861643791199,#
0.0119641125202178,-12.978670120239258,-6.190232276916504,0.3603998720645904,6.796286582946777,-0.4361449182033539,#
-0.5312066078186035,-11.059626579284668,-5.175675392150879,0.2602209150791168,5.800605773925781,-0.0598630309104919,#
-0.7154539823532104,-10.698309898376465,-6.005984783172607,0.2211267054080963,5.396224498748779,0.0745233595371246,#
-0.2679961323738098,-10.475777626037598,-6.927221298217773,-0.6743753552436829,4.699858665466309,0.256555825471878,#
-0.2679961323738098,-10.475777626037598,-6.927221298217773,-1.2058125734329224,4.373666286468506,0.2883199155330658,#
-0.4163511395454407,-9.702895164489746,-6.594619274139404,-1.2510151863098145,3.968063592910767,0.439810037612915,#
-0.6771688461303711,-9.140583038330078,-4.945964336395264,-0.7757760286331177,3.607663869857788,0.4581354260444641,#
-0.6819544434547424,-8.566305160522461,-5.297709465026856,-0.6572716236114502,3.4415132999420166,0.4300364553928375,#
-0.8446664214134216,-9.18126106262207,-5.927021503448486,-0.7244647741317749,3.026137113571167,0.3775035738945007,#
-0.9954141974449158,-8.877371788024902,-6.33380126953125,-0.9003888368606567,2.476374626159668,0.3518480062484741,#
-0.9954141974449158,-8.877371788024902,-6.33380126953125,-0.8588511943817139,2.2210404872894287,0.3249707520008087,#
-1.5936198234558103,-8.14516830444336,-5.800201892852783,-0.7134696245193481,1.8435369729995728,0.2736595571041107,#
-2.421536445617676,-7.960920810699463,-4.433900356292725,-0.6071821451187134,1.6798299551010132,0.2785463333129883,#
-2.557927370071411,-8.769694328308105,-3.87876558303833,-0.3017585575580597,1.225359559059143,0.2382304221391677,#
-2.550748825073242,-8.975478172302246,-3.407379388809204,0.0390942245721817,0.8515210747718811,0.2223483920097351,#
-2.550748825073242,-8.975478172302246,-3.407379388809204,0.130721315741539,0.7403469085693359,0.2101314514875412,#
-2.8354949951171875,-8.58066177368164,-3.4097721576690674,0.1392731666564941,0.546097457408905,0.1661504507064819,#
-3.2231321334838867,-8.353343963623047,-3.192025184631348,0.0024433890357613,0.4141544103622436,0.1319430023431778,#
-3.292524099349976,-7.855636119842529,-2.833101987838745,-0.0965138673782348,0.3518480062484741,0.123391143977642,#
-3.6059837341308594,-8.554340362548828,-2.050648927688598,-0.2015795856714248,0.199136197566986,0.1258345395326614,#
-3.6059837341308594,-8.554340362548828,-2.050648927688598,-0.1979145109653473,0.0342074446380138,0.0659715011715889,#
-3.76151704788208,-9.394222259521484,-1.4763716459274292,-0.0965138673782348,0.0342074446380138,0.0586413368582725,#
-3.902693748474121,-9.150154113769531,-1.5170495510101318,0.0305423624813556,-0.0390942245721817,0.0244338884949684,#
-4.067798614501953,-8.824729919433594,-1.6390833854675293,0.040315918624401,-0.0598630309104919,0.0244338884949684,#
-3.895515203475952,-8.50887680053711,-1.5481561422348022,-0.0684148892760276,-0.0452026948332786,-0.007330167107284,#
-3.9553356170654297,-8.975478172302246,-1.5481561422348022,-0.1954711079597473,-0.0488677769899368,0.0171037223190069,#
-3.9553356170654297,-8.975478172302246,-1.5481561422348022,-0.2174616158008575,-0.0818535313010215,0.0207688063383102,#
-4.041477203369141,-9.339186668395996,-1.0600204467773438,-0.1930277347564697,-0.1319430023431778,0.0024433890357613,#
-4.122833251953125,-9.45164966583252,-0.7657032012939453,-0.1136175915598869,-0.1685938388109207,-0.0305423624813556,#
-4.120440483093262,-9.20279598236084,-1.0169496536254885,-0.0855186134576797,-0.1747023165225982,-0.0464243926107883,#
-4.127618789672852,-9.09511947631836,-1.4045867919921875,-0.0769667476415634,-0.1649287492036819,-0.0586413368582725,#
-4.127618789672852,-9.09511947631836,-1.4045867919921875,-0.0745233595371246,-0.1563768982887268,-0.0561979450285434,#
-4.242474555969238,-9.44447135925293,-0.9834501147270204,-0.0097735561430454,-0.1722589135169983,-0.0525328628718853,#
-3.967299938201904,-9.485149383544922,-0.5216353535652161,0.0390942245721817,-0.1478250324726104,-0.0561979450285434,#
-3.981656789779663,-9.379864692687988,-0.7250252366065979,0.0537545569241046,-0.1356080919504165,-0.0561979450285434,#
-4.000799655914307,-9.265008926391602,-0.9379864931106568,0.0500894747674465,-0.1490467190742492,-0.0427593067288398,#
-3.948157548904419,-9.418149948120115,-0.7154539823532104,0.0232121963053941,-0.1905843466520309,-0.0366508327424526,#
-3.948157548904419,-9.418149948120115,-0.7154539823532104,0.0048867780715227,-0.1954711079597473,-0.040315918624401,#
-3.9218363761901855,-9.547362327575684,-0.7824530005455017,-0.0427593067288398,-0.1856975704431533,-0.0342074446380138,#
-3.6562328338623047,-9.291330337524414,-0.6604190468788147,-0.0464243926107883,-0.1453816443681717,-0.0256555844098329,#
-3.7232320308685294,-9.370293617248535,-0.4019941985607147,-0.0268772784620523,-0.129499614238739,-0.0268772784620523,#
-3.94097900390625,-9.556933403015137,-0.2871387302875519,0.0280989725142717,-0.1490467190742492,-0.0195471122860908,#
-3.94097900390625,-9.556933403015137,-0.2871387302875519,0.0525328628718853,-0.152711808681488,-0.0146603342145681,#
-3.8500516414642334,-9.578469276428224,-0.3421736359596252,0.069636583328247,-0.152711808681488,-0.0122169442474842,#
-3.845265865325928,-9.262616157531738,-0.5910272002220154,0.0109952501952648,-0.1185043603181839,-0.0109952501952648,#
-3.845265865325928,-9.219545364379885,-0.5814558863639832,-0.0183254163712263,-0.1087308079004287,-0.0134386392310261,#
-3.840480089187622,-9.265008926391602,-0.4977070987224579,-0.0415376126766204,-0.0928487852215766,-0.0207688063383102,#
-4.000799655914307,-9.442078590393066,-0.2057827562093734,0.0195471122860908,-0.0659715011715889,-0.0219905003905296,#
-4.000799655914307,-9.442078590393066,-0.2057827562093734,0.0671931952238082,-0.0574196390807628,-0.0268772784620523,#
-3.91705060005188,-9.384650230407717,-0.3996013700962066,0.1502684205770492,-0.0513111688196659,-0.0366508327424526,#
-3.845265865325928,-9.375079154968262,-0.4426721632480621,0.1832541674375534,-0.0464243926107883,-0.0329857505857944,#
-3.845265865325928,-9.276973724365234,-0.607776939868927,0.2199050188064575,-0.0280989725142717,-0.0293206684291362,#
-3.943371772766113,-9.140583038330078,-0.7417750358581543,0.2528907656669616,-0.003665083553642,-0.0219905003905296,#
-3.943371772766113,-9.140583038330078,-0.7417750358581543,0.2736595571041107,-0.003665083553642,-0.0256555844098329,#
-3.8524444103240967,-9.394222259521484,-0.973878800868988,0.3432961404323578,-0.0122169442474842,-0.0354291386902332,#
-3.6634113788604736,-9.219545364379885,-0.8757730722427368,0.4349232316017151,0.0476460866630077,-0.0256555844098329,#
-3.6921253204345694,-8.827122688293457,-1.2825528383255005,0.4703523814678192,0.0708582773804664,-0.0244338884949684,#
-3.658626079559326,-8.841480255126953,-1.7730815410614014,0.5094466209411621,0.1014006435871124,0.0109952501952648,#
-3.658626079559326,-8.841480255126953,-1.7730815410614014,0.499673068523407,0.1123958900570869,0.0244338884949684,#
-3.091526985168457,-8.71226692199707,-2.5914268493652344,0.3445178270339966,0.1502684205770492,0.0500894747674465,#
-2.7254250049591064,-8.310273170471191,-3.565305471420288,0.1966928243637085,0.1319430023431778,0.0452026948332786,#
-2.63449764251709,-8.111669540405273,-4.292723655700684,0.1087308079004287,0.1197260618209838,0.0427593067288398,#
-2.2923240661621094,-7.575676441192627,-5.462814331054688,-0.0781884491443634,0.0561979450285434,0.0427593067288398,#
-1.5242280960083008,-6.903293132781982,-7.262216091156006,-0.3811686933040619,-0.0647498071193695,-0.069636583328247,#
-1.5242280960083008,-6.903293132781982,-7.262216091156006,-0.5534276366233826,-0.1734806150197982,-0.1258345395326614,left
-1.0241280794143677,-6.393621921539307,-8.731410026550293,-0.971247136592865,-0.4886777997016907,-0.2199050188064575,left
-0.4019941985607147,-6.486942291259766,-10.597811698913574,-1.2229161262512207,-1.0188932418823242,-0.4141544103622436,left
0.3589234054088592,-7.216752529144287,-12.366107940673828,-1.227802872657776,-1.2937743663787842,-0.517998456954956,left
1.9334007501602173,-7.231109619140625,-14.038690567016602,-1.2241379022598269,-1.8667491674423216,-0.7379034161567688,left
1.9334007501602173,-7.231109619140625,-14.038690567016602,-1.3059914112091064,-2.112309694290161,-0.860072910785675,left
3.730410575866699,-6.9344000816345215,-16.429121017456055,-1.698155403137207,-2.5912139415740967,-1.1129636764526367,left
6.434299945831299,-7.156932830810547,-19.185651779174805,-2.4482758045196533,-3.413414478302002,-1.5136795043945312,left
9.879963874816896,-7.788637638092041,-19.66182327270508,-2.7671380043029785,-3.988832473754883,-1.7629051208496094,left
14.019548416137695,-10.030712127685549,-17.19003677368164,-2.707274913787842,-5.658888816833496,-2.483704805374145,left
16.429121017456055,-12.890134811401367,-14.512468338012695,-2.241809368133545,-7.754095077514648,-3.316900491714477,left
16.429121017456055,-12.890134811401367,-14.512468338012695,-2.1184182167053223,-8.818190574645996,-3.586894989013672,left
18.503698348999023,-14.196616172790527,-12.191431045532228,-2.3395450115203857,-10.414945602416992,-3.931412696838379,left
20.047069549560547,-14.555541038513184,-11.593226432800291,-2.8917508125305176,-11.514470100402832,-3.88498854637146,left
21.37508583068848,-14.58186149597168,-10.569098472595217,-3.199617862701416,-11.865097045898438,-3.832455635070801,left
21.738792419433597,-19.520647048950195,-7.82692289352417,-3.2790281772613525,-12.642094612121582,-3.7225029468536377,left
21.738792419433597,-19.520647048950195,-7.82692289352417,-3.503819704055786,-13.013489723205566,-3.583229780197144,left
20.51845359802246,-20.166711807250977,-9.470791816711426,-3.055458068847656,-13.331130981445312,-3.478163957595825,left
20.80080795288086,-19.068403244018555,-14.313865661621094,-1.27544903755188,-12.934080123901367,-3.2326035499572754,left
23.61237525939941,-20.30788803100586,-12.224931716918944,-0.4752391576766968,-12.600556373596191,-2.8819773197174072,left
22.073789596557617,-18.11127471923828,-8.803194999694824,-0.1038440242409706,-11.242033004760742,-2.048781633377075,left
22.073789596557617,-18.11127471923828,-8.803194999694824,0.2235700935125351,-9.23845386505127,-1.605306625366211,left
20.81277084350586,-14.36889934539795,-3.842873096466065,0.1539334952831268,-8.493220329284668,-1.440377712249756,left
21.17169570922852,-14.151152610778809,1.509871006011963,-0.007330167107284,-7.162794589996338,-0.9907942414283752,left
19.85085678100586,-15.213566780090332,2.749353408813477,-0.2052446752786636,-6.583711624145508,-0.7159129977226257,left
17.056039810180664,-13.665410041809082,2.2683956623077397,-0.1490467190742492,-5.376677513122559,-0.2406738102436065,left
15.160923957824709,-12.1866455078125,1.758724570274353,-0.0928487852215766,-4.157426357269287,0.1673721522092819,left
15.160923957824709,-12.1866455078125,1.758724570274353,-0.2272351831197738,-3.517258405685425,0.3897205293178558,left
11.899507522583008,-11.44965648651123,4.149154186248779,0.0855186134576797,-1.7897825241088867,0.5534276366233826,left
6.824329853057861,-10.353742599487305,5.065605640411377,0.7317950129508972,-0.7623373866081238,0.3591781854629516,left
3.3403804302215576,-9.193224906921388,4.469792366027832,0.8063183426856995,-0.4593571126461029,0.2394521236419677,left
0.8757730722427368,-8.774479866027832,3.005385160446167,0.9370396137237548,-0.0305423624813556,0.0366508327424526,left
0.8757730722427368,-8.774479866027832,3.005385160446167,0.7977665066719055,0.0879620015621185,-0.0085518611595034,left
-0.5766702890396118,-7.501499176025391,1.6462620496749878,0.5864133238792419,0.3970507085323334,-0.1404948681592941,left
-1.9908283948898315,-8.204988479614258,0.3086740970611572,0.2858764827251434,0.6377245187759399,-0.1539334952831268,left
-2.682354211807251,-8.74337387084961,-0.4091726541519165,0.1637070626020431,0.6413896083831787,-0.1209477484226226,left
-2.9240293502807617,-9.600004196166992,-0.6795615553855896,0.1014006435871124,0.5131116509437561,-0.0720799788832664,left
-2.878565788269043,-9.726823806762695,-0.8853443264961243,0.1502684205770492,0.3298574984073639,0.0354291386902332,left
-2.878565788269043,-9.726823806762695,-0.8853443264961243,0.1588202863931656,0.2455605864524841,0.0769667476415634,left
-2.8929224014282227,-8.989834785461426,-0.6843472719192505,0.1979145109653473,0.0952921733260154,0.152711808681488,left
-3.084348201751709,-8.839086532592773,-0.4474578499794006,0.123391143977642,0.0733016654849052,0.199136197566986,#
-3.488735675811768,-9.422935485839844,-0.5455635190010071,0.0965138673782348,0.0904053896665573,0.2028012871742248,#
-3.1202406883239746,-9.269794464111328,-0.5718846321105957,0.0500894747674465,-0.0329857505857944,0.1747023165225982,#
-3.1202406883239746,-9.269794464111328,-0.5718846321105957,0.0097735561430454,-0.1038440242409706,0.1661504507064819,#
-2.25403904914856,-8.70508861541748,-0.6029912829399109,-0.0207688063383102,-0.0940704718232154,0.1502684205770492,#
-2.1415762901306152,-9.044869422912598,-0.4594219326972961,-0.0464243926107883,0.0366508327424526,0.1160609796643257,#
-2.289931058883667,-9.542576789855955,-0.3661018908023834,-0.0097735561430454,0.0537545569241046,0.0867403075098991,#
-1.9764715433120728,-9.477970123291016,-0.3373879790306091,0.0513111688196659,0.0061084721237421,0.0598630309104919,#
-1.7874385118484497,-9.528220176696776,-0.4283152520656585,0.0464243926107883,0.0476460866630077,0.0256555844098329,#
-1.7874385118484497,-9.528220176696776,-0.4283152520656585,0.0207688063383102,0.1197260618209838,0.0097735561430454,#
-2.2085752487182617,-9.387042999267578,-0.662811815738678,-0.0183254163712263,0.2235700935125351,-0.0207688063383102,#
-2.392822742462158,-9.437292098999023,-0.8231310248374939,-0.0513111688196659,0.2321219593286514,-0.0207688063383102,#
-2.187039852142334,-9.798608779907228,-0.8039883971214294,-0.0635281130671501,0.1918060332536697,-0.0305423624813556,#
-1.978864312171936,-10.102496147155762,-0.7800601720809937,0.0390942245721817,0.1563768982887268,-0.0525328628718853,#
-1.978864312171936,-10.102496147155762,-0.7800601720809937,0.1014006435871124,0.1685938388109207,-0.0635281130671501,#
-1.8735800981521609,-10.037891387939451,-0.9188438653945924,0.1844758540391922,0.1905843466520309,-0.0720799788832664,#
-1.5002998113632202,-9.8871431350708,-0.8422735333442688,0.2504473626613617,0.199136197566986,-0.0659715011715889,#
-1.244267821311951,-9.566505432128906,-0.6675975918769836,0.2602209150791168,0.2174616158008575,-0.0525328628718853,#
-1.5984054803848269,-9.329615592956545,-0.5766702890396118,0.2076880484819412,0.3225273489952087,-0.0378725305199623,#
-1.5984054803848269,-9.329615592956545,-0.5766702890396118,0.1808107793331146,0.4544703662395477,-0.0488677769899368,#
-2.062613010406494,-9.82971477508545,-0.7800601720809937,0.1685938388109207,0.4434750974178314,-0.0366508327424526,#
-1.8400806188583372,-10.080962181091309,-0.8973084688186646,0.1404948681592941,0.4007157981395721,-0.0183254163712263,#
-1.5074783563613892,-10.200602531433104,-0.8925228118896484,0.1417165547609329,0.4153760969638824,-0.007330167107284,#
-1.526620864868164,-10.1336030960083,-0.7920243144035339,0.1771456897258758,0.4862344264984131,0.0171037223190069,#
-1.4548362493515017,-9.906286239624023,-0.8135597109794617,0.2186833024024963,0.5412106513977051,0.0415376126766204,#
-1.4548362493515017,-9.906286239624023,-0.8135597109794617,0.2431172132492065,0.5131116509437561,0.0671931952238082,#
-0.7441678047180176,-9.671788215637209,-0.5862415432929993,0.3481829464435577,0.4581354260444641,0.0867403075098991,#
-0.0478564500808715,-9.772287368774414,-0.4259224236011505,0.4361449182033539,0.5241069197654724,0.0757450610399246,#
0.5216353535652161,-9.523433685302734,-0.5168496966362,0.4581354260444641,0.5851916074752808,0.0794101431965828,#
1.0145567655563354,-9.257830619812012,-0.1651047617197036,0.5949652194976807,0.7550071477890015,0.0500894747674465,#
1.0145567655563354,-9.257830619812012,-0.1651047617197036,0.6963658928871155,0.8502993583679199,0.0232121963053941,#
1.2035897970199585,-8.669197082519531,0.2440679222345352,0.9797989726066588,1.0811996459960938,-0.1050657257437706,#
1.306481122970581,-8.38684368133545,0.138783723115921,1.2168077230453491,1.2852225303649902,-0.3567348122596741,#
1.7539390325546265,-8.250452041625977,-0.246460735797882,1.2717839479446411,1.3243167400360107,-0.4984513521194458,#
2.596212387084961,-7.537391662597656,-0.3014956414699554,1.086086392402649,1.3585243225097656,-0.7733326554298401,#
3.072384119033813,-7.556533336639404,-0.2871387302875519,0.95658677816391,1.6529526710510254,-1.0518789291381836,#
3.072384119033813,-7.556533336639404,-0.2871387302875519,0.9162708520889282,1.8972915410995483,-1.1997039318084717,#
3.1202406883239746,-7.905886173248291,-0.1411765366792678,0.893058717250824,2.317554235458374,-1.4819154739379885,#
3.469593048095703,-8.614161491394043,-0.1962114423513412,0.9969027042388916,2.5325727462768555,-1.839871883392334,#
4.584648132324219,-7.647461414337158,0.1052841916680336,0.8258654475212097,2.5875487327575684,-1.9815884828567505,#
5.711667537689209,-7.008577823638916,0.3637090623378753,0.3982723951339721,2.803788661956787,-2.2405877113342285,#
5.711667537689209,-7.008577823638916,0.3637090623378753,0.1710372269153595,3.017585277557373,-2.3713088035583496,#
6.530013084411621,-8.913264274597168,0.1459621787071228,0.0671931952238082,3.4329614639282227,-2.577775239944458,#
7.676175117492676,-12.875778198242188,0.3780659735202789,0.0830752253532409,3.811686754226685,-2.75003433227539,#
8.757731437683105,-13.933405876159668,0.8470591902732849,0.0525328628718853,4.06824254989624,-2.811119079589844,#
8.767301559448242,-14.4741849899292,1.459621787071228,0.2699944972991943,4.812254905700684,-2.8746471405029297,#
8.767301559448242,-14.4741849899292,1.459621787071228,0.2699944972991943,5.458530902862549,-2.81234073638916,#
8.700303077697754,-15.76870059967041,1.3495519161224363,0.4080459475517273,5.80182695388794,-2.7756898403167725,#
8.336593627929688,-17.984455108642578,1.0241280794143677,0.7769976854324341,6.345480918884277,-2.770802974700928,#
7.570890426635742,-16.381263732910156,0.3996013700962066,0.8173136115074158,6.576381206512451,-2.670624256134033,#
7.015756130218506,-14.81396484375,-0.1986042857170105,0.5925218462944031,7.149356365203857,-2.363978862762451,#
6.374479293823242,-15.306886672973633,0.2943171858787536,0.0769667476415634,7.602604866027832,-1.8643057346343996,#
6.374479293823242,-15.306886672973633,0.2943171858787536,-0.100178949534893,7.728439331054687,-1.610193371772766,#
5.828916072845459,-16.266408920288086,-0.0526420958340168,-0.0427593067288398,7.837169647216797,-1.1826002597808838,#
5.07517671585083,-16.29033660888672,-0.882951557636261,0.2687727808952331,7.757760047912598,-0.7916580438613892,#
4.627718925476074,-15.007783889770508,-1.0791629552841189,0.4288147687911987,7.7113356590271,-0.6438329815864563,#
4.022334575653076,-13.292129516601562,-2.514856576919556,0.6731536388397217,7.620930194854736,-0.3640649616718292,#
4.022334575653076,-13.292129516601562,-2.514856576919556,0.6511631608009338,7.462110042572021,-0.2137965410947799,#
3.1274189949035645,-11.705689430236816,-2.3784656524658203,-0.1612636744976043,7.112705230712891,0.1893626451492309,#
2.5914268493652344,-10.222138404846191,-1.8472589254379272,-1.1349540948867798,6.7217631340026855,0.5656445622444153,#
1.954936146736145,-11.11466121673584,-2.2229323387146,-1.2742273807525637,6.365028381347656,0.7110261917114258,#
1.722832441329956,-11.284551620483398,-3.476771354675293,-1.397618532180786,5.492738246917725,0.9248227477073668,#
1.0169496536254885,-10.064212799072266,-3.0173492431640625,-1.220472812652588,4.845240116119385,1.0042328834533691,#
1.0169496536254885,-10.064212799072266,-3.0173492431640625,-1.0836429595947266,4.569137096405029,0.9871291518211364,#
0.2632104754447937,-9.097511291503906,-2.651247262954712,-0.8270871639251709,4.145209312438965,0.896723747253418,#
-0.2344966232776641,-8.054241180419922,-3.084348201751709,-0.7965447902679443,3.696847677230835,0.8796200752258301,#
-0.5766702890396118,-7.654639720916748,-3.2159535884857178,-0.7293516397476196,3.379206895828247,0.8698464632034302,#
-1.3160523176193235,-7.984848976135254,-3.373879909515381,-0.5143333673477173,2.8770906925201416,0.7733326554298401,#
-1.3160523176193235,-7.984848976135254,-3.373879909515381,-0.3958290219306946,2.6425251960754395,0.7049177289009094,#
-1.588834285736084,-8.681159973144531,-3.486342430114746,-0.3005368411540985,2.163620948791504,0.5509842038154602,#
-1.6175479888916016,-8.805586814880371,-3.098705530166626,-0.1954711079597473,1.738471269607544,0.4410317242145538,#
-2.0865414142608643,-8.054241180419922,-2.091326951980591,-0.1685938388109207,1.6114150285720823,0.4239279925823211,#
-2.596212387084961,-7.843672752380371,-1.6893328428268433,-0.1588202863931656,1.3731845617294312,0.3677300214767456,#
-2.967100143432617,-8.226524353027344,-1.7347965240478516,-0.178367406129837,1.086086392402649,0.3628432750701904,#
-2.967100143432617,-8.226524353027344,-1.7347965240478516,-0.1930277347564697,0.9749122262001038,0.3347443044185638,#
-3.2757742404937744,-8.59501838684082,-1.9118653535842896,-0.178367406129837,0.8124268054962158,0.2651077210903168,#
-3.445664882659912,-8.685946464538574,-1.4715858697891235,-0.1698155403137207,0.7281299233436584,0.2492256760597229,#
-3.469593048095703,-8.513663291931152,-0.8757730722427368,-0.128277912735939,0.5961868762969971,0.2211267054080963,#
-3.747160196304321,-8.437092781066895,-0.2919243574142456,-0.0720799788832664,0.53143709897995,0.2150182276964187,#
-3.747160196304321,-8.437092781066895,-0.2919243574142456,-0.040315918624401,0.4703523814678192,0.21135313808918,#
-3.838087558746338,-8.695517539978027,-0.5120640397071838,0.0415376126766204,0.3994940817356109,0.1808107793331146,#
-4.091726779937744,-8.57348346710205,-1.0001999139785769,0.0109952501952648,0.3603998720645904,0.1637070626020431,#
-4.192224979400635,-8.295915603637695,-1.0887343883514404,-0.0134386392310261,0.3469612300395965,0.1441599577665329,#
-4.316651821136475,-8.432307243347168,-0.7680960297584534,-0.1258345395326614,0.2602209150791168,0.0855186134576797,#
-4.316651821136475,-8.432307243347168,-0.7680960297584534,-0.1747023165225982,0.1172826737165451,0.0244338884949684,#
-4.381258487701416,-8.748159408569336,-0.3924228847026825,-0.2223483920097351,0.0452026948332786,0.0061084721237421,#
-4.19701099395752,-8.551947593688965,-0.5503491759300232,-0.3738385140895843,-0.0146603342145681,0.0097735561430454,#
-4.220939159393311,-8.863015174865723,-0.8709874749183655,-0.4251496791839599,-0.0439810007810592,0.0097735561430454,#
-4.223331928253174,-9.1716890335083,-0.7369893789291382,-0.4544703662395477,-0.0977355539798736,-0.0280989725142717,#
-4.063012599945068,-9.284152030944824,-0.3014956414699554,-0.3213056325912475,-0.1490467190742492,-0.0708582773804664,#
-4.063012599945068,-9.284152030944824,-0.3014956414699554,-0.2394521236419677,-0.1466033309698104,-0.0818535313010215,#
-4.089334011077881,-9.097511291503906,-0.1244267746806144,-0.0940704718232154,-0.1111741960048675,-0.0684148892760276,#
-4.273581027984619,-9.016156196594238,-0.3206382095813751,-0.0232121963053941,-0.1136175915598869,-0.0537545569241046,#
-4.163511276245117,-9.166903495788574,0.057427741587162,-0.0232121963053941,-0.1429382413625717,-0.0513111688196659,#
-4.163511276245117,-9.492327690124512,0.1794617027044296,-0.0256555844098329,-0.1942494213581085,-0.0500894747674465,#
-4.163511276245117,-9.492327690124512,0.1794617027044296,-0.0329857505857944,-0.1856975704431533,-0.0500894747674465,#
-4.2137603759765625,-9.30329418182373,0.1818545311689376,-0.0329857505857944,-0.1331647038459777,-0.0390942245721817,#
-4.192224979400635,-8.918049812316895,0.0813559740781784,-0.0769667476415634,-0.0794101431965828,-0.0293206684291362,#
-4.1730828285217285,-9.145368576049805,0.2871387302875519,-0.0830752253532409,-0.069636583328247,-0.0244338884949684,#
-4.019941806793213,-9.324830055236816,0.397208571434021,-0.0940704718232154,-0.0684148892760276,-0.0244338884949684,#
-4.118047714233398,-9.298508644104004,0.2105683833360672,-0.069636583328247,-0.0635281130671501,-0.0329857505857944,#
-4.118047714233398,-9.298508644104004,0.2105683833360672,-0.0513111688196659,-0.0671931952238082,-0.0390942245721817,#
-4.113262176513672,-9.145368576049805,-0.0622133873403072,0.0097735561430454,-0.1160609796643257,-0.0635281130671501,#
-3.8668015003204346,-9.253045082092283,0.0526420958340168,0.0965138673782348,-0.1588202863931656,-0.0769667476415634,#
-3.7256247997283936,-9.097511291503906,0.1124626696109771,0.1380514800548553,-0.1600419729948043,-0.0794101431965828,#
-3.8907296657562256,-8.858229637145996,-0.0981057211756706,0.2186833024024963,-0.1038440242409706,-0.0586413368582725,#
-3.8907296657562256,-8.858229637145996,-0.0981057211756706,0.2382304221391677,-0.0830752253532409,-0.0549762547016143,#
-3.876372575759888,-8.745766639709473,-0.3278167247772217,0.2516690790653229,-0.0965138673782348,-0.0684148892760276,#
-3.680161237716675,-8.71944522857666,-0.7226324081420898,0.2089097648859024,-0.1014006435871124,-0.0794101431965828,#
-3.603590488433838,-8.575876235961914,-1.5601203441619873,0.175924003124237,-0.0769667476415634,-0.0769667476415634,#
-3.431307554244995,-8.391629219055176,-1.8975083827972408,0.1942494213581085,-0.0464243926107883,-0.0891837030649185,#
-3.431307554244995,-8.391629219055176,-1.8975083827972408,0.2137965410947799,0.0048867780715227,-0.0977355539798736,#
-3.266202926635742,-8.157133102416992,-2.6321046352386475,0.1734806150197982,-0.003665083553642,-0.0977355539798736,#
-2.957528829574585,-8.097311973571777,-3.3236305713653564,-0.0244338884949684,-0.0342074446380138,-0.0769667476415634,#
-2.63449764251709,-7.762316703796387,-4.460221290588379,-0.1966928243637085,-0.0427593067288398,-0.0635281130671501,#
-2.2085752487182617,-7.178467750549316,-7.496713638305664,-0.5974085927009583,-0.0891837030649185,-0.0671931952238082,#
-2.2085752487182617,-7.178467750549316,-7.496713638305664,-1.022558331489563,-0.1881409436464309,-0.1136175915598869,#
-1.1653046607971191,-7.2502522468566895,-8.365307807922363,-1.187487006187439,-0.2968717515468597,-0.1710372269153595,#
-0.1722832471132278,-7.384250640869141,-10.24367332458496,-1.4965757131576538,-0.6621583700180054,-0.3445178270339966,left
0.4474578499794006,-8.15234661102295,-11.801401138305664,-1.7690136432647705,-1.0628741979599,-0.5375455617904663,left
1.8257235288619995,-8.204988479614258,-12.593424797058104,-1.8362067937850952,-1.3243167400360107,-0.6352811455726624,left
1.8257235288619995,-8.204988479614258,-12.593424797058104,-2.025569438934326,-1.91317355632782,-0.8637380003929138,left
2.9766712188720703,-8.255237579345703,-13.452449798583984,-2.036564826965332,-2.172172784805298,-0.9785772562026978,left
4.460221290588379,-8.870193481445312,-14.636896133422852,-2.2027151584625244,-2.687727928161621,-1.1997039318084717,left
6.826723098754883,-10.147960662841797,-14.811572074890137,-2.3309929370880127,-3.451286792755127,-1.5295615196228027,left
9.647860527038574,-11.75115203857422,-14.828322410583496,-2.3676440715789795,-3.8923187255859375,-1.7421363592147827,left
12.095718383789062,-12.555140495300291,-15.321243286132812,-2.365200519561768,-4.979626655578613,-2.1770594120025635,left
12.095718383789062,-12.555140495300291,-15.321243286132812,-2.548454761505127,-6.335707187652588,-2.637638568878174,left
15.000605583190918,-13.249059677124023,-14.699109077453612,-2.586327314376831,-7.06383752822876,-2.866095304489136,left
17.41257095336914,-14.132010459899902,-13.902298927307127,-2.565558433532715,-8.54575252532959,-3.379206895828247,left
20.468204498291016,-15.048460960388184,-11.516655921936035,-2.8013453483581543,-9.998347282409668,-3.654088020324707,left
21.72682762145996,-16.895721435546875,-8.22413158416748,-3.062788248062134,-10.671501159667969,-3.757932424545288,left
21.72682762145996,-16.895721435546875,-8.22413158416748,-3.517258405685425,-11.976271629333496,-4.009601593017578,left
20.932411193847656,-18.74058723449707,-5.9198431968688965,-3.5746781826019287,-12.46983528137207,-4.070686340332031,left
18.857833862304688,-22.05464744567871,-3.706482172012329,-3.275362968444824,-12.978059768676758,-4.079237937927246,left
16.240087509155273,-21.04487419128418,-11.708081245422363,-2.2320358753204346,-13.43375301361084,-3.810465097427368,left
19.635501861572266,-19.26700782775879,-13.500306129455566,-1.369519591331482,-13.713521003723145,-3.6553099155426025,left
20.95633888244629,-14.37847137451172,-4.287938117980957,0.9578084945678712,-12.313459396362305,-2.1648426055908203,left
20.95633888244629,-14.37847137451172,-4.287938117980957,0.5558710098266602,-9.65749454498291,-1.1679399013519287,left
19.685752868652344,-12.753745079040527,1.1724830865859983,0.2724378705024719,-8.367384910583496,-0.8698464632034302,left
18.721445083618164,-12.335000991821287,4.168296813964844,-0.0916270837187767,-6.362584590911865,-0.5412106513977051,left
17.92463493347168,-12.007183074951172,4.663610935211182,-0.2467822879552841,-5.7297468185424805,-0.4789042472839355,left
14.452648162841797,-12.253644943237305,5.627918720245361,-0.7660024166107178,-4.721848964691162,-0.0635281130671501,left
14.452648162841797,-12.253644943237305,5.627918720245361,-0.8881718516349792,-3.677300214767456,0.0488677769899368,left
9.276973724365234,-10.626524925231934,4.878964900970459,-0.6303943395614624,-2.97604775428772,0.0354291386902332,left
4.948357105255127,-9.035298347473145,2.476571559906006,0.2418954968452453,-1.6444008350372314,-0.0012216945178806,left
1.6175479888916016,-10.140782356262209,2.2923240661621094,0.3628432750701904,-0.6914790868759155,-0.2675510942935943,left
-0.2560320198535919,-10.054640769958496,2.438286304473877,0.4349232316017151,-0.3445178270339966,-0.2724378705024719,left
-0.5407779216766357,-8.987441062927246,2.1607186794281006,0.8747332096099854,-0.0256555844098329,-0.42270627617836,left
-0.5407779216766357,-8.987441062927246,2.1607186794281006,1.0482138395309448,0.0366508327424526,-0.5204418301582336,left
-1.057627558708191,-8.35573673248291,1.2610174417495728,0.9639169573783876,0.1185043603181839,-0.4911211729049682,left
-2.045863389968872,-9.006584167480469,0.5335994362831116,0.5900784730911255,0.4080459475517273,-0.3836120665073395,left
-2.538784980773926,-9.633503913879396,0.0933200791478157,0.4495835602283478,0.494786262512207,-0.342074453830719,left
-2.366501569747925,-10.250852584838867,-0.064606212079525,0.2932066619396209,0.393385648727417,-0.1685938388109207,left
-2.366501569747925,-10.250852584838867,-0.064606212079525,0.3029802441596985,0.1918060332536697,-0.0574196390807628,left
-2.359323024749756,-9.923035621643066,-0.5312066078186035,0.3176405727863312,0.1588202863931656,-0.0244338884949684,left
-2.352144718170166,-9.45164966583252,-1.179661512374878,0.2602209150791168,0.178367406129837,0.0256555844098329,left
-2.2707886695861816,-9.566505432128906,-0.9212367534637452,0.0794101431965828,0.1808107793331146,0.0598630309104919,left
-2.163111686706543,-10.310672760009766,-0.7178468108177185,-0.0219905003905296,0.1771456897258758,0.0940704718232154,#
-2.163111686706543,-10.310672760009766,-0.7178468108177185,-0.0488677769899368,0.1258345395326614,0.1075091138482093,#
-1.9094725847244265,-10.317852020263672,-0.5766702890396118,-0.0097735561430454,0.0842969194054603,0.1087308079004287,#
-1.8161523342132568,-10.112068176269531,-0.6699903011322021,0.0659715011715889,0.0293206684291362,0.0794101431965828,#
-1.8257235288619995,-9.68375301361084,-0.7106683850288391,0.1356080919504165,0.0097735561430454,0.0525328628718853,#
-1.7922240495681765,-9.284152030944824,-0.7776673436164856,0.1453816443681717,0.0061084721237421,0.0354291386902332,#
-1.521835207939148,-9.77946662902832,-0.8494520783424377,0.1429382413625717,-0.007330167107284,0.0183254163712263,#
-1.521835207939148,-9.77946662902832,-0.8494520783424377,0.1209477484226226,-0.0378725305199623,0.007330167107284,#
-1.3328022956848145,-9.717252731323242,-0.6987042427062988,0.1209477484226226,-0.0488677769899368,0.0146603342145681,#
-1.3543376922607422,-9.824929237365724,-0.3421736359596252,0.1099525094032287,-0.0329857505857944,0.0195471122860908,#
-1.7515461444854736,-9.958927154541016,-0.277567446231842,0.0745233595371246,0.0280989725142717,0.0342074446380138,#
-1.8616160154342647,-9.990034103393556,-0.4809573292732239,0.0781884491443634,0.0733016654849052,0.0342074446380138,#
-1.8616160154342647,-9.990034103393556,-0.4809573292732239,0.1050657257437706,0.0928487852215766,0.031764056533575,#
-1.3998013734817505,-10.03549861907959,-0.6604190468788147,0.128277912735939,0.0708582773804664,0.0415376126766204,#
-0.7154539823532104,-9.920641899108888,-0.5982056856155396,0.1979145109653473,0.0549762547016143,0.0464243926107883,#
-0.3110669553279876,-9.475577354431152,-0.1842473447322845,0.2101314514875412,0.1099525094032287,0.0830752253532409,#
-0.3493521213531494,-9.253045082092283,-0.0430708117783069,0.21135313808918,0.128277912735939,0.1050657257437706,#
-0.7130610942840576,-9.485149383544922,-0.229710966348648,0.0867403075098991,0.2199050188064575,0.1624853760004043,#
-0.7130610942840576,-9.485149383544922,-0.229710966348648,0.0024433890357613,0.3677300214767456,0.1600419729948043,#
-0.413958340883255,-9.437292098999023,-0.5455635190010071,-0.0048867780715227,0.3970507085323334,0.152711808681488,#
0.2057827562093734,-9.31047248840332,-0.552742063999176,0.0525328628718853,0.3994940817356109,0.1209477484226226,#
0.4187439680099487,-8.941977500915527,-0.3541377484798431,0.1014006435871124,0.4324798583984375,0.1258345395326614,#
0.5814558863639832,-8.317451477050781,-0.3469592928886413,0.2076880484819412,0.5790832042694092,0.1038440242409706,#
0.5814558863639832,-8.317451477050781,-0.3469592928886413,0.1319430023431778,0.7965447902679443,0.129499614238739,#
0.9595218896865844,-8.183453559875488,-0.3062812983989715,0.0818535313010215,0.8771765828132629,0.123391143977642,#
1.56251323223114,-8.389235496520996,-0.4689932465553283,-0.0452026948332786,0.9969027042388916,0.1014006435871124,#
1.9094725847244265,-8.535198211669922,-0.5024927258491516,-0.0904053896665573,1.1764918565750122,0.0097735561430454,#
1.7994027137756348,-8.642874717712402,-0.8470591902732849,-0.0488677769899368,1.3096565008163452,-0.0390942245721817,#
1.7994027137756348,-8.642874717712402,-0.8470591902732849,0.0916270837187767,1.6285187005996704,-0.2186833024024963,#
1.6055840253829956,-8.415557861328125,-0.8757730722427368,0.2247917801141739,1.858197331428528,-0.4239279925823211,#
2.029113531112671,-8.403593063354492,-1.3663017749786377,0.2345653474330902,1.93272066116333,-0.53143709897995,#
2.431107759475708,-8.95394229888916,-1.294516921043396,0.2333436459302902,2.0842106342315674,-0.7562289237976074,#
2.723031997680664,-9.305686950683594,-1.191625714302063,0.2431172132492065,2.1599559783935547,-0.901610553264618,#
3.005385160446167,-9.681360244750977,-1.0767701864242554,0.2528907656669616,2.4262852668762207,-1.1740483045578003,#
3.005385160446167,-9.681360244750977,-1.0767701864242554,0.2602209150791168,2.625421524047852,-1.4025052785873413,#
3.739981651306152,-10.612168312072754,-1.007378339767456,0.287098228931427,2.707274913787842,-1.5136795043945312,#
4.240081787109375,-10.94716453552246,-1.3471590280532837,0.2602209150791168,2.8538784980773926,-1.7335845232009888,#
4.847858428955078,-12.234502792358398,-1.4691929817199707,0.0549762547016143,3.153193473815918,-1.877744436264038,#
5.259423732757568,-14.400006294250488,-1.284945726394653,-0.0745233595371246,3.3254523277282715,-1.8423151969909668,#
5.259423732757568,-14.400006294250488,-1.284945726394653,-0.1087308079004287,3.7102861404418954,-1.8606407642364504,#
5.077569961547852,-14.653645515441896,-1.06480610370636,0.0232121963053941,3.925304412841797,-1.8997348546981807,#
5.350350856781006,-13.653446197509766,-1.0049854516983032,0.2968717515468597,4.174530029296875,-2.0695505142211914,#
5.737988471984863,-14.184652328491213,-1.3710873126983645,0.4422534108161926,4.28081750869751,-2.112309694290161,#
6.2189459800720215,-14.634504318237305,-1.4811571836471558,0.5338804721832275,4.350454330444336,-2.15506911277771,#
5.92223596572876,-13.579268455505373,-1.7898313999176023,0.7098045349121094,4.591127872467041,-2.035343170166016,#
5.92223596572876,-13.579268455505373,-1.7898313999176023,0.9211575984954834,5.013833999633789,-1.91317355632782,#
5.637490272521973,-12.224931716918944,-2.2683956623077397,0.8588511943817139,5.200753211975098,-1.793447494506836,#
5.146961212158203,-12.480962753295898,-2.6560330390930176,0.5338804721832275,5.545271396636963,-1.480693817138672,#
4.7234320640563965,-13.1365966796875,-2.756531953811645,0.3127537965774536,5.922775268554688,-1.147171139717102,#
4.316651821136475,-13.23709487915039,-2.71346116065979,0.2247917801141739,6.062047958374023,-0.9920158982276917,#
4.316651821136475,-13.23709487915039,-2.71346116065979,0.0452026948332786,6.351589679718018,-0.6670452356338501,#
3.3858442306518555,-12.80160140991211,-2.770888566970825,0.0452026948332786,6.550725936889648,-0.5070031881332397,#
2.5052852630615234,-12.583854675292969,-1.160519003868103,-0.0219905003905296,6.768187046051025,-0.2211267054080963,#
1.8903299570083616,-12.514461517333984,-1.3902300596237185,0.1954711079597473,6.744975090026856,0.1038440242409706,#
1.777867317199707,-11.107483863830566,-1.9238293170928955,0.4251496791839599,6.605701923370361,0.1918060332536697,#
1.794616937637329,-9.365508079528809,-2.0650060176849365,0.6279509663581848,6.283174991607666,0.3921639025211334,#
1.794616937637329,-9.365508079528809,-2.0650060176849365,0.3579564988613128,6.0828166007995605,0.5131116509437561,#
1.3974084854125977,-8.61894702911377,-1.2825528383255005,0.0855186134576797,6.080373764038086,0.5473191142082214,#
0.5096712112426758,-10.03549861907959,-1.8472589254379272,-0.4972296357154846,5.999741554260254,0.6584933400154114,#
-0.0406779870390892,-10.155139923095703,-2.359323024749756,-0.833195686340332,5.314371109008789,0.9126058220863342,#
-0.4689932465553283,-9.212367057800291,-3.1992037296295166,-1.0030112266540527,4.940532207489014,1.068982720375061,#
-0.4689932465553283,-9.212367057800291,-3.1992037296295166,-1.1826002597808838,4.499500751495361,1.1288456916809082,#
-1.0193424224853516,-9.219545364379885,-2.3162522315979004,-1.2168077230453491,4.344345569610596,1.0616525411605835,#
-1.160519003868103,-8.812766075134277,-1.3663017749786377,-1.2363548278808594,3.958290100097656,0.9138274788856506,#
-1.1437692642211914,-8.606983184814453,-2.031506299972534,-1.2045906782150269,3.3376693725585938,0.7794410586357117,#
-1.37587308883667,-8.465806007385254,-2.5363922119140625,-0.9382613897323608,2.9662742614746094,0.7513421177864075,#
-1.6582260131835938,-8.82951545715332,-2.778067111968994,-0.577861487865448,2.3761956691741943,0.6658235192298889,#
-1.6582260131835938,-8.82951545715332,-2.778067111968994,-0.3457395434379577,1.9021782875061035,0.4898994863033294,#
-1.722832441329956,-9.049654960632324,-2.400001049041748,-0.2809897363185882,1.682273268699646,0.4141544103622436,#
-1.8400806188583372,-8.951549530029297,-1.7084753513336182,-0.0659715011715889,1.347529053688049,0.3054236173629761,#
-2.1343977451324463,-8.839086532592773,-0.638883650302887,0.0183254163712263,1.241241693496704,0.2174616158008575,#
-2.4047868251800537,-9.131011009216309,-0.7776673436164856,0.1478250324726104,1.0555440187454224,0.1844758540391922,#
-2.4047868251800537,-9.131011009216309,-0.7776673436164856,0.2651077210903168,0.8283088207244873,0.1319430023431778,#
-2.438286304473877,-8.733802795410156,-0.552742063999176,0.2553341388702392,0.7696675062179565,0.1417165547609329,#
-2.5842485427856445,-8.834300994873047,0.0693918615579605,0.128277912735939,0.6890356540679932,0.152711808681488,#
-2.5938196182250977,-9.24825954437256,0.3900300860404968,0.0867403075098991,0.5925218462944031,0.1062874197959899,#
-2.67278265953064,-9.121439933776855,-0.0598205626010894,0.0842969194054603,0.5375455617904663,0.0806318372488021,#
-2.67278265953064,-9.121439933776855,-0.0598205626010894,0.0146603342145681,0.4727957546710968,0.0623064190149307,#
-2.785245418548584,-8.94676399230957,-0.1938186287879943,-0.1050657257437706,0.4080459475517273,0.0537545569241046,#
-2.837887763977051,-9.131011009216309,0.1818545311689376,-0.1832541674375534,0.3738385140895843,0.0427593067288398,#
-2.909672498703003,-9.506684303283691,0.5694918036460876,-0.2455605864524841,0.2736595571041107,0.0061084721237421,#
-2.9288151264190674,-9.760323524475098,0.851844847202301,-0.2455605864524841,0.2162399291992187,-0.007330167107284,#
-2.995814085006714,-9.817750930786133,0.4929214715957641,-0.1600419729948043,0.0806318372488021,-0.0354291386902332,#
-2.995814085006714,-9.817750930786133,0.4929214715957641,-0.0867403075098991,-0.0171037223190069,-0.0256555844098329,#
-3.3020951747894287,-9.66221809387207,0.2201396822929382,-0.0342074446380138,-0.0366508327424526,-0.0219905003905296,#
-3.314059257507324,-9.81057357788086,0.5479563474655151,0.0525328628718853,-0.0390942245721817,-0.0048867780715227,#
-3.249453067779541,-9.973284721374512,0.9308080077171326,0.1466033309698104,-0.0659715011715889,0.0048867780715227,#
-3.31166672706604,-9.858428955078123,1.1437692642211914,0.175924003124237,-0.0623064190149307,0.0061084721237421,#
-3.31166672706604,-9.858428955078123,1.1437692642211914,0.155155211687088,-0.0452026948332786,0.0122169442474842,#
-3.3619158267974854,-9.76271629333496,0.9858429431915284,0.0928487852215766,-0.0452026948332786,0.0048867780715227,#
-3.206382274627685,-9.712467193603516,1.0695916414260864,0.0329857505857944,-0.0586413368582725,0.0097735561430454,#
-3.239881753921509,-9.891928672790527,1.3854442834854126,-0.0769667476415634,-0.0977355539798736,0.0256555844098329,#
-3.148954391479492,-9.89432144165039,1.3710873126983645,-0.0806318372488021,-0.1136175915598869,0.0293206684291362,#
-3.266202926635742,-9.757929801940918,1.031306505203247,-0.0415376126766204,-0.0855186134576797,0.040315918624401,#
-3.266202926635742,-9.757929801940918,1.031306505203247,0.0219905003905296,-0.0085518611595034,0.0635281130671501,#
-3.3308091163635254,-9.741181373596191,1.0456634759902954,0.040315918624401,0.0293206684291362,0.0733016654849052,#
-3.1824538707733154,-9.944571495056152,1.584048628807068,0.0635281130671501,0.0684148892760276,0.0794101431965828,#
-2.9790639877319336,-9.774680137634276,1.4452648162841797,0.130721315741539,0.0574196390807628,0.0781884491443634,#
-3.1178479194641118,-9.561718940734863,1.007378339767456,0.1502684205770492,0.0769667476415634,0.0855186134576797,#
-3.1178479194641118,-9.561718940734863,1.007378339767456,0.1392731666564941,0.1356080919504165,0.1221694499254226,#
-3.1992037296295166,-9.772287368774414,0.8638089299201965,0.1160609796643257,0.1637070626020431,0.1356080919504165,#
-3.0652055740356445,-9.901500701904297,1.1437692642211914,0.123391143977642,0.1685938388109207,0.1380514800548553,#
-3.1968109607696533,-9.559326171875,1.1150553226470947,0.2125748395919799,0.2394521236419677,0.1368297785520553,#
-3.192025184631348,-9.298508644104004,0.9308080077171326,0.2651077210903168,0.2809897363185882,0.1368297785520553,#
-3.2470602989196777,-9.372685432434082,0.6436693072319031,0.2638860046863556,0.3384093642234802,0.1624853760004043,#
-3.2470602989196777,-9.372685432434082,0.6436693072319031,0.2028012871742248,0.3310791850090027,0.1808107793331146,#
-3.366701364517212,-9.860822677612305,0.3373879790306091,0.1869192570447921,0.3237490355968475,0.1869192570447921,#
-3.3475589752197266,-9.578469276428224,0.3661018908023834,0.2638860046863556,0.2675510942935943,0.200357899069786,#
-3.4121649265289307,-8.779266357421875,0.0669990330934524,0.3078669905662536,0.2883199155330658,0.2137965410947799,#
-3.483949899673462,-8.554340362548828,-0.4187439680099487,0.3836120665073395,0.416597843170166,0.2028012871742248,#
-3.483949899673462,-8.554340362548828,-0.4187439680099487,0.3921639025211334,0.4618005454540252,0.2076880484819412,#
-3.5461630821228027,-8.5160551071167,-0.6867401003837585,0.3127537965774536,0.4703523814678192,0.2199050188064575,#
-3.4121649265289307,-8.606983184814453,-1.4093725681304932,0.175924003124237,0.4031591713428497,0.2052446752786636,#
-3.369094133377075,-8.38684368133545,-1.7635102272033691,-0.0158820282667875,0.3640649616718292,0.1893626451492309,#
-3.304487943649292,-8.307880401611328,-1.9334007501602173,-0.1099525094032287,0.3274141252040863,0.1893626451492309,#
-3.304487943649292,-8.307880401611328,-1.9334007501602173,-0.3054236173629761,0.2504473626613617,0.1649287492036819,left
-2.849851608276367,-8.267202377319336,-3.019742012023926,-0.5155550837516785,0.1185043603181839,0.1050657257437706,left
-2.455036163330078,-8.434700012207031,-4.412364959716797,-0.6377245187759399,0.0354291386902332,0.0745233595371246,left
-1.9525433778762815,-8.334200859069824,-5.735595226287842,-0.9272661209106444,-0.0635281130671501,0.0329857505857944,left
-1.4404792785644531,-8.389235496520996,-7.630711555480957,-1.1068552732467651,-0.0733016654849052,0.0244338884949684,left
-0.6484549045562744,-8.171488761901855,-8.693124771118164,-1.3072130680084229,-0.0904053896665573,-0.0195471122860908,left
-0.6484549045562744,-8.171488761901855,-8.693124771118164,-1.3145432472229004,-0.1514901220798492,-0.0781884491443634,left
0.0957129001617431,-7.905886173248291,-9.817750930786133,-1.3963968753814695,-0.2150182276964187,-0.1026223376393318,left
1.0863415002822876,-8.489734649658203,-11.298907279968262,-1.595533013343811,-0.5632011890411377,-0.1698155403137207,left
2.163111686706543,-8.906085968017578,-13.232309341430664,-1.8728575706481931,-1.0836429595947266,-0.3628432750701904,left
3.426522016525269,-8.700303077697754,-15.25903034210205,-2.059777021408081,-1.349972367286682,-0.4850127100944519,left
3.426522016525269,-8.700303077697754,-15.25903034210205,-2.505695581436157,-1.9168386459350584,-0.785549521446228,left
5.335994720458984,-8.973085403442383,-16.366907119750977,-2.7720248699188232,-2.279681921005249,-1.0054545402526855,left
8.327022552490234,-11.174481391906738,-16.335800170898438,-3.3511078357696533,-3.286358118057251,-1.5772075653076172,left
11.196017265319824,-11.858829498291016,-16.599010467529297,-3.7225029468536377,-4.74506139755249,-2.385969400405884,left
15.534204483032228,-12.741781234741213,-12.933207511901855,-3.831233978271485,-5.666219234466553,-2.76347279548645,left
17.93899154663086,-14.249258041381836,-9.755537986755373,-3.746937036514282,-7.854273796081543,-3.661418199539185,left
17.93899154663086,-14.249258041381836,-9.755537986755373,-3.1605236530303955,-10.16327667236328,-4.450633049011231,left
19.97289085388184,-15.294922828674316,-7.762316703796387,-2.745147466659546,-11.075881958007812,-4.635108470916748,left
19.846071243286133,-16.28794288635254,-8.513663291931152,-1.6309621334075928,-12.171741485595703,-4.670538425445557,left
18.180665969848636,-16.63729476928711,-11.184053421020508,-0.7818844318389893,-12.776480674743652,-4.24783182144165,left
19.298114776611328,-17.302499771118164,-11.411370277404783,-0.9187142252922058,-13.147876739501951,-3.902092218399048,left
19.298114776611328,-17.302499771118164,-11.411370277404783,-1.9461593627929688,-13.537596702575684,-3.0969953536987305,left
18.80040740966797,-19.771892547607425,-10.07139015197754,-2.201493501663208,-13.64632797241211,-2.971161127090454,left
19.55414581298828,-19.771892547607425,-9.698110580444336,-1.837428450584412,-13.020819664001465,-2.640081882476806,left
19.211973190307617,-13.651052474975586,-8.731410026550293,-0.6927007436752319,-11.702611923217772,-2.150182247161865,left
18.295522689819336,-11.243873596191406,-3.9840497970581055,0.0366508327424526,-10.204813957214355,-1.7629051208496094,left
18.77408599853516,-11.803793907165527,-0.6245267391204834,0.3579564988613128,-8.131598472595215,-1.035996913909912,left
18.77408599853516,-11.803793907165527,-0.6245267391204834,-0.4007157981395721,-6.890356540679932,-0.4593571126461029,left
18.55155372619629,-14.151152610778809,2.8283162117004395,-0.7036960124969482,-6.330820560455322,-0.3542913794517517,left
15.704095840454102,-15.617953300476074,4.326223373413086,-0.9907942414283752,-5.270390033721924,-0.1563768982887268,left
13.100704193115234,-14.299508094787598,4.766502857208252,-0.9846857786178588,-4.76827335357666,-0.040315918624401,left
10.176674842834473,-11.686546325683594,4.194617748260498,-0.5864133238792419,-3.8410074710845943,0.2394521236419677,left
10.176674842834473,-11.686546325683594,4.194617748260498,-0.1417165547609329,-2.817227363586426,0.3665083348751068,left
6.776473522186279,-10.336994171142578,3.1992037296295166,0.0171037223190069,-2.250361204147339,0.463022232055664,left
3.314059257507324,-9.602396965026855,2.5196423530578613,0.2418954968452453,-1.031110167503357,0.5839699506759644,left
0.7106683850288391,-9.10229778289795,1.978864312171936,0.4618005454540252,-0.1026223376393318,0.601073682308197,left
-0.0119641125202178,-8.104490280151367,1.919043779373169,0.5864133238792419,0.0879620015621185,0.546097457408905,left
-0.0119641125202178,-8.104490280151367,1.919043779373169,0.4544703662395477,0.200357899069786,0.4434750974178314,left
-0.6939185857772827,-8.039883613586426,1.1270195245742798,0.2076880484819412,0.3811686933040619,0.3994940817356109,left
-1.741974949836731,-8.346165657043457,0.3996013700962066,0.0965138673782348,0.5094466209411621,0.4056025743484497,left
-2.617748022079468,-8.561518669128418,-0.4331009089946747,0.0513111688196659,0.7085827589035034,0.3811686933040619,left
-3.345165967941284,-8.709875106811523,-0.7417750358581543,0.0488677769899368,0.7415685653686523,0.3897205293178558,left
-3.768695831298828,-8.791230201721191,-1.1150553226470947,0.1075091138482093,0.7146912813186646,0.3616215586662292,left
-3.768695831298828,-8.791230201721191,-1.1150553226470947,0.1747023165225982,0.574196457862854,0.3555130958557129,left
-3.739981651306152,-8.61894702911377,-1.5002998113632202,0.1392731666564941,0.5033381581306458,0.3469612300395965,left
-3.38823676109314,-8.664410591125488,-1.6223337650299072,0.1368297785520553,0.3775035738945007,0.2919849753379822,left
-3.1968109607696533,-8.784051895141602,-1.37587308883667,0.1331647038459777,0.2956500649452209,0.2418954968452453,left
-3.2039895057678223,-9.006584167480469,-1.2035897970199585,0.1673721522092819,0.2944283783435821,0.2150182276964187,left
-3.2039895057678223,-9.006584167480469,-1.2035897970199585,0.2431172132492065,0.3017585575580597,0.1808107793331146,left
-3.1992037296295166,-8.810372352600098,-0.9595218896865844,0.2675510942935943,0.287098228931427,0.1747023165225982,left
-3.1513471603393555,-8.898907661437988,-0.7992027401924133,0.2883199155330658,0.2541124522686004,0.1539334952831268,left
-3.2781667709350586,-8.891729354858398,-0.7369893789291382,0.2699944972991943,0.2272351831197738,0.1258345395326614,left
-3.3308091163635254,-8.944371223449707,-0.8327022790908813,0.2223483920097351,0.2382304221391677,0.1050657257437706,#
-3.16331148147583,-8.83669376373291,-0.9667003750801086,0.1417165547609329,0.2492256760597229,0.0684148892760276,#
-3.16331148147583,-8.83669376373291,-0.9667003750801086,0.0842969194054603,0.2541124522686004,0.0378725305199623,#
-3.1058835983276367,-8.958727836608887,-0.8350951075553894,0.0671931952238082,0.2626643180847168,0.0452026948332786,#
-3.4193434715271,-9.384650230407717,-0.6245267391204834,0.0623064190149307,0.3078669905662536,0.0329857505857944,#
-3.5916268825531006,-9.54496955871582,-0.5862415432929993,0.1466033309698104,0.342074453830719,-0.0048867780715227,#
-3.3858442306518555,-9.53779125213623,-0.7920243144035339,0.1930277347564697,0.3384093642234802,-0.0427593067288398,#
-3.3858442306518555,-9.53779125213623,-0.7920243144035339,0.2418954968452453,0.2663294076919555,-0.1136175915598869,#
-3.0388848781585693,-9.377471923828123,-0.8997013568878174,0.2516690790653229,0.2223483920097351,-0.1343863904476165,#
-3.122633695602417,-9.272188186645508,-0.8350951075553894,0.2394521236419677,0.2260134816169738,-0.1575985848903656,#
-3.2231321334838867,-9.578469276428224,-1.0001999139785769,0.1478250324726104,0.2748812437057495,-0.1356080919504165,#
-2.950350284576416,-9.81535816192627,-1.0959126949310305,0.1319430023431778,0.2712161839008331,-0.129499614238739,#
-2.950350284576416,-9.81535816192627,-1.0959126949310305,0.1441599577665329,0.21135313808918,-0.1221694499254226,#
-2.636890411376953,-9.973284721374512,-0.8877372145652771,0.2260134816169738,0.1747023165225982,-0.1343863904476165,#
-2.6703903675079346,-9.726823806762695,-0.851844847202301,0.2223483920097351,0.1856975704431533,-0.1392731666564941,#
-2.6249265670776367,-9.805787086486816,-0.9547362923622132,0.1905843466520309,0.2089097648859024,-0.1356080919504165,#
-2.3497519493103027,-9.956534385681152,-1.0695916414260864,0.1698155403137207,0.1942494213581085,-0.1185043603181839,#
-1.9932212829589844,-9.66221809387207,-0.882951557636261,0.199136197566986,0.152711808681488,-0.1111741960048675,#
-1.9932212829589844,-9.66221809387207,-0.882951557636261,0.2797680497169494,0.1209477484226226,-0.0989572554826736,#
-2.048256158828736,-9.549755096435549,-0.7369893789291382,0.2541124522686004,0.1478250324726104,-0.0928487852215766,#
-2.1032910346984863,-9.585646629333496,-0.8470591902732849,0.2345653474330902,0.2211267054080963,-0.0781884491443634,#
-1.8281164169311523,-9.619147300720217,-0.8398807048797607,0.1111741960048675,0.2260134816169738,-0.0574196390807628,#
-1.519442439079285,-9.616753578186035,-0.705882728099823,0.0855186134576797,0.2137965410947799,-0.0464243926107883,#
-1.519442439079285,-9.616753578186035,-0.705882728099823,0.1600419729948043,0.2040229737758636,-0.0659715011715889,#
-1.3998013734817505,-9.260223388671877,-0.3158525824546814,0.1869192570447921,0.2015795856714248,-0.0708582773804664,#
-1.6510475873947144,-9.34157943725586,-0.430708110332489,0.1685938388109207,0.2883199155330658,-0.0537545569241046,#
-1.239482045173645,-9.4061861038208,-0.7752745151519775,0.1490467190742492,0.3665083348751068,-0.1111741960048675,#
-0.2751745879650116,-9.434900283813477,-0.9954141974449158,0.1600419729948043,0.3127537965774536,-0.1246128380298614,#
0.3158525824546814,-9.133403778076172,-0.6245267391204834,0.1893626451492309,0.2516690790653229,-0.1502684205770492,#
0.3158525824546814,-9.133403778076172,-0.6245267391204834,0.2162399291992187,0.3689517080783844,-0.1795890927314758,#
0.4953142702579498,-8.492127418518066,-0.4522434771060943,0.2125748395919799,0.4789042472839355,-0.1844758540391922,#
0.7034898400306702,-8.642874717712402,-0.3876372575759887,0.1343863904476165,0.6963658928871155,-0.1820324808359146,#
0.9451649785041808,-8.841480255126953,-0.5814558863639832,0.0415376126766204,0.8722898364067078,-0.1930277347564697,#
1.2681961059570312,-9.099905014038086,-0.5288137793540955,0.0085518611595034,0.95169997215271,-0.2199050188064575,#
1.2681961059570312,-9.099905014038086,-0.5288137793540955,-0.0354291386902332,1.1826002597808838,-0.2968717515468597,#
1.5242280960083008,-9.379864692687988,-0.4450649619102478,-0.0122169442474842,1.3243167400360107,-0.3457395434379577,#
1.706082463264465,-9.879963874816896,-0.4187439680099487,0.0134386392310261,1.6395140886306765,-0.4239279925823211,#
2.031506299972534,-9.978070259094238,-0.5479563474655151,0.1710372269153595,1.94249427318573,-0.5448757410049438,#
2.2085752487182617,-10.39202880859375,-0.4378865361213684,0.2321219593286514,2.095206022262573,-0.5949652194976807,#
2.2923240661621094,-10.700701713562012,-0.7202396392822266,0.3665083348751068,2.4800398349761963,-0.6939224600791931,#
2.2923240661621094,-10.700701713562012,-0.7202396392822266,0.448361873626709,2.8599867820739746,-0.7623373866081238,#
2.462214469909668,-10.985447883605955,-0.7178468108177185,0.4984513521194458,3.0383541584014893,-0.7965447902679443,#
2.9240293502807617,-11.11705493927002,-0.6556334495544434,0.7464553117752075,3.370655059814453,-0.919935941696167,#
3.617947816848755,-11.093125343322754,-0.5623133182525635,0.8307521939277649,3.513593435287476,-0.9810206294059752,#
4.309473514556885,-11.243873596191406,-1.2490534782409668,0.8881718516349792,3.814130306243897,-1.0738694667816162,#
4.309473514556885,-11.243873596191406,-1.2490534782409668,0.8429691791534424,4.21240234375,-1.1703832149505615,#
4.615755081176758,-12.447463035583496,-2.194218397140503,0.9284878373146056,4.462850093841553,-1.2106993198394775,#
4.783252716064453,-12.346964836120604,-2.5052852630615234,1.202147364616394,4.956414222717285,-1.3340904712677002,#
4.457828521728516,-12.507284164428713,-2.543570280075073,1.2265812158584597,5.460974216461182,-1.3951750993728638,#
4.094119548797607,-13.682159423828123,-2.0817556381225586,1.2497934103012085,5.697983264923096,-1.4159438610076904,#
4.094119548797607,-13.682159423828123,-2.0817556381225586,1.3255385160446167,5.95209550857544,-1.446486234664917,#
4.00319242477417,-14.134403228759766,-1.0791629552841189,1.549108624458313,6.01073694229126,-1.4721418619155884,#
4.125226020812988,-13.375877380371094,-0.0909272655844688,1.6138584613800049,5.983860015869141,-1.480693817138672,#
4.019941806793213,-13.249059677124023,-0.8542376756668091,1.562547206878662,5.838478088378906,-1.4159438610076904,#
3.706482172012329,-14.021940231323242,-1.2801601886749268,1.5002408027648926,5.765175819396973,-1.3670761585235596,#
3.2039895057678223,-13.564910888671877,-0.7082754969596863,1.6346272230148315,5.696761608123779,-1.2742273807525637,#
3.2039895057678223,-13.564910888671877,-0.7082754969596863,1.582094430923462,5.702869892120361,-1.1935955286026,#
2.6081764698028564,-13.179667472839355,-0.8901299238204956,1.6248536109924316,5.696761608123779,-1.1251806020736694,#
2.344966173171997,-11.90907859802246,-1.8544375896453855,1.1826002597808838,5.651558876037598,-0.9174925684928894,#
2.1272192001342773,-12.792030334472656,-2.1750757694244385,0.4862344264984131,5.570927143096924,-0.601073682308197,#
1.4715858697891235,-12.387642860412598,-2.553141593933105,0.1014006435871124,5.498847007751465,-0.4239279925823211,#
1.4715858697891235,-12.387642860412598,-2.553141593933105,-0.4288147687911987,5.410884857177734,-0.0061084721237421,#
0.6125625967979431,-11.746365547180176,-3.005385160446167,-0.5399889945983887,5.386451244354248,0.1856975704431533,#
-0.3996013700962066,-11.085947036743164,-2.569891452789306,-0.73912513256073,5.370568752288818,0.5033381581306458,#
-1.4261221885681152,-11.638689994812012,-1.7324036359786987,-0.9724688529968262,5.118899822235107,0.7256865501403809,#
-1.3902300596237185,-11.210373878479004,-1.7156537771224976,-0.8612945675849915,4.862344264984131,0.833195686340332,#
-0.9451649785041808,-9.54496955871582,-2.1032910346984863,-0.494786262512207,4.090233325958252,1.0091196298599243,#
-0.9451649785041808,-9.54496955871582,-2.1032910346984863,-0.2174616158008575,3.4549520015716557,1.0262233018875122,#
-1.1772687435150146,-8.812766075134277,-2.9766712188720703,-0.1258345395326614,3.301018476486206,0.9907942414283752,#
-1.674975872039795,-9.291330337524414,-2.311466693878174,0.0781884491443634,3.100660562515259,0.905275583267212,#
-2.048256158828736,-8.958727836608887,-1.2969098091125488,0.3139754831790924,2.7903501987457275,0.7818844318389893,#
-2.2205395698547363,-8.429913520812988,-0.916451096534729,0.4789042472839355,2.6315298080444336,0.6975875496864319,#
-2.2205395698547363,-8.429913520812988,-0.916451096534729,0.8209787011146545,2.3480966091156006,0.5131116509437561,#
-2.541177749633789,-8.157133102416992,-1.5457634925842283,0.8845068216323853,2.2466959953308105,0.4324798583984375,#
-2.627319574356079,-8.484949111938477,-2.00518536567688,0.8160918951034546,2.082988977432251,0.2993151545524597,#
-2.2947168350219727,-9.035298347473145,-1.284945726394653,0.5302154421806335,1.799556016921997,0.1417165547609329,#
-2.091326951980591,-8.834300994873047,-0.0311066936701536,0.4837909936904907,1.6346272230148315,0.0904053896665573,#
-2.225324869155884,-9.083154678344728,0.3062812983989715,0.4153760969638824,1.4110571146011353,0.0342074446380138,#
-2.225324869155884,-9.083154678344728,0.3062812983989715,0.4544703662395477,1.2937743663787842,0.0024433890357613,#
-2.445464611053467,-9.42772102355957,-0.1220339611172676,0.4508052766323089,1.227802872657776,-0.0048867780715227,#
-2.493321180343628,-9.370293617248535,-0.3469592928886413,0.3017585575580597,1.0482138395309448,0.0122169442474842,#
-2.5914268493652344,-8.877371788024902,-0.0358923412859439,0.2394521236419677,0.9736905097961426,0.0293206684291362,#
-2.833101987838745,-8.922836303710938,0.4594219326972961,0.1331647038459777,0.9064972996711732,0.0659715011715889,#
-2.833101987838745,-8.922836303710938,0.4594219326972961,0.0659715011715889,0.8429691791534424,0.0842969194054603,#
-2.8594231605529785,-9.635896682739258,0.8470591902732849,0.130721315741539,0.7379034161567688,0.0842969194054603,#
-2.739781856536865,-9.609575271606444,0.4642075896263122,0.3323009014129638,0.5289937257766724,0.0781884491443634,#
-3.0269205570220947,-8.901299476623535,0.1531406491994857,0.3689517080783844,0.4727957546710968,0.0952921733260154,#
-3.397808313369751,-8.709875106811523,0.3708875179290771,0.2907632887363434,0.4642439186573028,0.1062874197959899,#
-3.397808313369751,-8.709875106811523,0.3708875179290771,0.1209477484226226,0.4129327237606048,0.1075091138482093,#
-3.3714869022369385,-8.738588333129883,0.7441678047180176,-0.0146603342145681,0.3359659910202026,0.1111741960048675,#
-3.328416109085083,-9.037691116333008,1.529013752937317,-0.0659715011715889,0.2968717515468597,0.1038440242409706,#
-3.4719858169555664,-9.351150512695312,1.521835207939148,-0.0684148892760276,0.2125748395919799,0.0928487852215766,#
-3.596412420272827,-9.04726219177246,1.1389836072921753,-0.0219905003905296,0.199136197566986,0.0806318372488021,#
-3.610769510269165,-9.126225471496582,0.8925228118896484,-0.0305423624813556,0.2235700935125351,0.0647498071193695,#
-3.610769510269165,-9.126225471496582,0.8925228118896484,-0.1258345395326614,0.2834331095218658,0.0574196390807628,#
-3.414557933807373,-8.93240737915039,1.557727575302124,-0.1514901220798492,0.3151971697807312,0.0390942245721817,#
-3.5772697925567627,-8.918049812316895,2.1583259105682373,-0.2260134816169738,0.4141544103622436,0.0500894747674465,#
-3.739981651306152,-9.355937004089355,1.9884356260299685,-0.2162399291992187,0.4410317242145538,0.0586413368582725,#
-3.960121393203736,-9.422935485839844,1.5074783563613892,-0.1856975704431533,0.4349232316017151,0.0549762547016143,#
-3.960121393203736,-9.422935485839844,1.5074783563613892,-0.123391143977642,0.4544703662395477,0.0476460866630077,#
-3.785445213317871,-9.308080673217772,1.423729419708252,-0.0855186134576797,0.4422534108161926,0.0464243926107883,#
-3.7639100551605225,-9.099905014038086,1.526620864868164,-0.0232121963053941,0.4752391576766968,0.0256555844098329,#
-3.943371772766113,-9.05683422088623,1.1509476900100708,-0.0158820282667875,0.4923428893089294,0.0122169442474842,#
-4.022334575653076,-9.530611991882324,0.8781659603118896,-0.0415376126766204,0.4801259338855743,0.003665083553642,#
-3.742374420166016,-9.549755096435549,0.5048855543136597,-0.0733016654849052,0.3958290219306946,-0.0109952501952648,#
-3.742374420166016,-9.549755096435549,0.5048855543136597,-0.0855186134576797,0.3567348122596741,-0.0109952501952648,#
-3.912264823913574,-9.219545364379885,-0.0430708117783069,-0.0574196390807628,0.3555130958557129,-0.0219905003905296,#
-3.7567315101623535,-8.975478172302246,-0.4713860750198364,-0.0769667476415634,0.3787252902984619,-0.031764056533575,#
-3.7902309894561768,-9.260223388671877,-0.8207381367683411,-0.1111741960048675,0.388498842716217,-0.0207688063383102,#
-3.706482172012329,-9.80817985534668,-1.1413763761520386,-0.2028012871742248,0.3665083348751068,-0.0256555844098329,#
-3.706482172012329,-9.80817985534668,-1.1413763761520386,-0.2211267054080963,0.2773246467113495,-0.0390942245721817,#
-3.168097257614136,-9.351150512695312,-1.4045867919921875,-0.2040229737758636,0.2370087206363678,-0.0390942245721817,#
-3.3643085956573486,-8.061419486999512,-1.56969153881073,-0.258999228477478,0.3200839459896087,-0.0342074446380138,#
-3.3020951747894287,-7.94177770614624,-2.3066811561584477,-0.4043808877468109,0.3970507085323334,-0.0048867780715227,#
-3.3643085956573486,-8.776873588562012,-3.644268989562988,-0.5253286361694336,0.3823903799057007,-0.003665083553642,#
-3.3643085956573486,-8.776873588562012,-3.644268989562988,-0.8038749694824219,0.2272351831197738,-0.0183254163712263,left
-2.715853452682495,-8.903693199157715,-4.981856822967529,-0.8979454636573792,0.0818535313010215,-0.0195471122860908,left
-2.565105676651001,-8.707481384277344,-5.647061824798584,-0.9077189564704896,0.0500894747674465,-0.0280989725142717,left
-1.5481561422348022,-8.324630737304688,-6.178267955780029,-0.8075400590896606,-0.0830752253532409,-0.0781884491443634,left
-1.007378339767456,-8.039883613586426,-7.458428382873535,-0.8038749694824219,-0.1246128380298614,-0.1099525094032287,left
-0.1531406491994857,-8.331808090209961,-9.523433685302734,-1.012784719467163,-0.2199050188064575,-0.1771456897258758,left
-0.1531406491994857,-8.331808090209961,-9.523433685302734,-1.557660460472107,-0.4984513521194458,-0.2638860046863556,left
1.1437692642211914,-8.518448829650879,-10.8969144821167,-1.808107852935791,-0.7024743556976318,-0.3506263196468353,left
2.2683956623077397,-8.001599311828613,-11.789437294006348,-2.1367435455322266,-1.021336555480957,-0.52655029296875,left
4.4004011154174805,-8.195417404174805,-12.600604057312012,-2.3713088035583496,-1.4110571146011353,-0.8393040895462036,left
5.986842632293701,-8.630911827087402,-13.703696250915527,-2.4666011333465576,-1.6969337463378906,-1.0592091083526611,left
5.986842632293701,-8.630911827087402,-13.703696250915527,-2.675510883331299,-2.418955087661743,-1.5197879076004028,left
9.008977890014648,-9.308080673217772,-15.27578067779541,-2.808675765991211,-2.890529155731201,-1.7286977767944336,left
11.82054328918457,-10.750951766967772,-16.761722564697266,-3.037132501602173,-3.963176965713501,-2.256469488143921,left
15.108281135559082,-11.772686958312988,-17.553747177124023,-3.2961316108703613,-5.210526943206787,-2.811119079589844,left
17.213966369628906,-11.368300437927246,-15.869199752807615,-3.397532224655152,-6.042500972747803,-3.123872995376587,left
20.370100021362305,-13.380663871765137,-11.93779182434082,-3.319344043731689,-7.78708028793335,-3.7970263957977295,left
20.370100021362305,-13.380663871765137,-11.93779182434082,-2.8734254837036133,-10.080201148986816,-4.411539077758789,left
20.807985305786133,-14.6727876663208,-8.927621841430664,-2.458049297332764,-11.195608139038086,-4.637552261352539,left
21.64307975769043,-17.984455108642578,-6.97986364364624,-1.783673882484436,-13.17230987548828,-4.894108295440674,left
20.121246337890625,-19.676179885864254,-10.17188835144043,-1.6566176414489746,-14.943766593933104,-4.669316291809082,left
18.96072769165039,-18.147165298461918,-19.73360824584961,-1.6847167015075684,-15.695108413696287,-4.545925140380859,left
18.96072769165039,-18.147165298461918,-19.73360824584961,-0.8270871639251709,-16.447673797607422,-4.214846134185791,left
23.45684051513672,-16.620546340942383,-13.07199001312256,0.0476460866630077,-16.215551376342773,-3.812908411026001,left
26.98625373840332,-18.857833862304688,-6.709475040435791,1.0983033180236816,-15.497194290161133,-2.8563218116760254,left
21.320049285888672,-12.672389030456545,-3.1130621433258057,1.4916889667510986,-11.41551399230957,-1.9522677659988403,left
20.391632080078125,-8.200202941894531,0.0717846825718879,1.187487006187439,-9.894503593444824,-1.353637456893921,left
19.72403717041016,-8.796016693115234,3.046063184738159,0.4202629029750824,-7.98621654510498,-0.4410317242145538,left
19.72403717041016,-8.796016693115234,3.046063184738159,-0.549762487411499,-6.312495231628418,-0.1172826737165451,left
16.92682647705078,-10.368099212646484,4.960320949554443,-0.8955020904541016,-5.398667812347412,0.0244338884949684,left
13.485947608947754,-11.207980155944824,4.651647090911865,-1.1019684076309204,-3.860554456710816,0.1392731666564941,left
10.442277908325195,-11.27019500732422,4.156332969665527,-1.0433270931243896,-2.702388048171997,0.2284568697214126,left
7.752745151519775,-11.035696983337402,3.335594892501831,-0.8661814332008362,-2.19782829284668,0.2174616158008575,left
7.752745151519775,-11.035696983337402,3.335594892501831,-0.5155550837516785,-1.2840008735656738,0.1710372269153595,left
5.3694939613342285,-11.121840476989746,3.2374887466430664,-0.3872771561145782,-0.8625163435935974,0.1368297785520553,left
3.058027505874634,-11.353943824768066,3.1178479194641118,-0.0452026948332786,-0.129499614238739,0.003665083553642,left
1.3184452056884766,-10.482955932617188,2.627319574356079,0.3469612300395965,0.2638860046863556,-0.031764056533575,left
0.3134597539901733,-9.717252731323242,1.636690616607666,0.4972296357154846,0.4141544103622436,-0.0720799788832664,left
0.3134597539901733,-9.717252731323242,1.636690616607666,0.6279509663581848,0.6303943395614624,-0.0794101431965828,left
-0.5982056856155396,-8.824729919433594,0.6891329884529114,0.3151971697807312,0.8283088207244873,-0.0012216945178806,left
-1.794616937637329,-9.145368576049805,-0.0526420958340168,0.1624853760004043,0.9541434049606324,0.0109952501952648,left
-2.5076780319213867,-10.16231918334961,-0.5599204897880554,-0.0733016654849052,1.0176715850830078,0.0329857505857944,left
-2.550748825073242,-10.425528526306152,-0.861416220664978,-0.1172826737165451,0.9370396137237548,0.0586413368582725,left
-2.297109842300415,-9.944571495056152,-1.244267821311951,-0.0928487852215766,0.6707102656364441,0.0879620015621185,#
-2.297109842300415,-9.944571495056152,-1.244267821311951,0.0561979450285434,0.4410317242145538,0.1087308079004287,#
-2.057827472686768,-9.480363845825195,-1.2658032178878784,0.1026223376393318,0.3738385140895843,0.1148392781615257,#
-1.9573287963867188,-9.169296264648438,-0.8925228118896484,0.0623064190149307,0.2761029601097107,0.1600419729948043,#
-2.163111686706543,-9.305686950683594,-0.5694918036460876,-0.0342074446380138,0.2199050188064575,0.2089097648859024,#
-2.194218397140503,-9.549755096435549,-0.5048855543136597,-0.0781884491443634,0.199136197566986,0.2162399291992187,#
-2.194218397140503,-9.549755096435549,-0.5048855543136597,-0.1588202863931656,0.1539334952831268,0.2284568697214126,#
-1.947757601737976,-9.834501266479492,-0.5120640397071838,-0.1637070626020431,0.1221694499254226,0.2137965410947799,#
-2.021935224533081,-9.580862045288086,-0.4546363055706024,-0.1111741960048675,0.0745233595371246,0.1795890927314758,#
-2.057827472686768,-9.45164966583252,-0.4067798554897308,-0.0659715011715889,0.1111741960048675,0.1832541674375534,#
-1.9956141710281368,-9.77707290649414,-0.6029912829399109,-0.0842969194054603,0.1380514800548553,0.1893626451492309,#
-2.09850549697876,-9.834501266479492,-0.6436693072319031,-0.1197260618209838,0.1453816443681717,0.2101314514875412,#
-2.09850549697876,-9.834501266479492,-0.6436693072319031,-0.1466033309698104,0.178367406129837,0.2101314514875412,#
-2.062613010406494,-10.02592658996582,-0.5407779216766357,-0.123391143977642,0.1869192570447921,0.2015795856714248,#
-2.163111686706543,-10.030712127685549,-0.6005984544754028,-0.0476460866630077,0.2089097648859024,0.1808107793331146,#
-2.053041696548462,-9.879963874816896,-0.6269195079803467,0.0219905003905296,0.2028012871742248,0.1685938388109207,#
-1.9070796966552732,-9.879963874816896,-0.7537391781806946,0.031764056533575,0.1869192570447921,0.1563768982887268,#
-1.9070796966552732,-9.879963874816896,-0.7537391781806946,0.0012216945178806,0.1539334952831268,0.1466033309698104,#
-1.8927226066589355,-9.822537422180176,-0.6460621356964111,-0.0342074446380138,0.1429382413625717,0.1502684205770492,#
-1.9669002294540403,-9.901500701904297,-0.6197410225868225,-0.0855186134576797,0.1331647038459777,0.1466033309698104,#
-1.6199408769607544,-10.07378387451172,-0.763310432434082,-0.0940704718232154,0.0818535313010215,0.1380514800548553,#
-1.356730580329895,-10.01874828338623,-0.6652047038078308,-0.0745233595371246,0.0525328628718853,0.1258345395326614,#
-1.356730580329895,-10.01874828338623,-0.6652047038078308,-0.0342074446380138,0.0574196390807628,0.1038440242409706,#
-1.4189438819885254,-10.097711563110352,-0.6460621356964111,0.0476460866630077,0.1258345395326614,0.0757450610399246,#
-1.3998013734817505,-9.722038269042969,-0.5120640397071838,0.0855186134576797,0.1637070626020431,0.0610847249627113,#
-1.179661512374878,-9.7938232421875,-0.6675975918769836,0.1197260618209838,0.1832541674375534,0.0659715011715889,#
-1.0169496536254885,-9.91107177734375,-0.6556334495544434,0.1111741960048675,0.200357899069786,0.0671931952238082,#
-0.7130610942840576,-9.987641334533691,-0.5048855543136597,0.1123958900570869,0.2223483920097351,0.0855186134576797,#
-0.7130610942840576,-9.987641334533691,-0.5048855543136597,0.1417165547609329,0.2528907656669616,0.0806318372488021,#
-0.94037926197052,-9.812965393066406,-0.2703889608383178,0.1356080919504165,0.287098228931427,0.0818535313010215,#
-1.2299107313156128,-9.980463027954102,-0.3996013700962066,0.1392731666564941,0.4324798583984375,0.0684148892760276,#
-0.6795615553855896,-10.15992546081543,-0.6412764191627502,0.152711808681488,0.4764608442783355,0.0708582773804664,#
-0.1746760606765747,-10.16231918334961,-0.6412764191627502,0.1795890927314758,0.4776825606822967,0.0745233595371246,#
-0.1746760606765747,-10.16231918334961,-0.6412764191627502,0.2748812437057495,0.546097457408905,0.0781884491443634,#
0.2225324809551239,-9.80100154876709,-0.5551348924636841,0.3506263196468353,0.6071821451187134,0.0855186134576797,#
0.7034898400306702,-9.126225471496582,-0.3493521213531494,0.3994940817356109,0.7232431173324585,0.123391143977642,#
0.8590233325958252,-8.803194999694824,-0.3254238963127136,0.2956500649452209,0.873511552810669,0.1795890927314758,#
0.8685945868492126,-9.15733242034912,-0.5910272002220154,0.2015795856714248,0.9785772562026978,0.2064663618803024,#
1.0719845294952393,-9.492327690124512,-0.9332008361816406,0.0806318372488021,1.2290246486663818,0.2211267054080963,#
1.0719845294952393,-9.492327690124512,-0.9332008361816406,0.0635281130671501,1.4440428018569946,0.200357899069786,#
1.0504491329193115,-9.848857879638672,-1.0145567655563354,0.0891837030649185,1.5613255500793457,0.1820324808359146,#
0.8111668825149536,-9.827322006225586,-1.0528419017791748,0.2272351831197738,1.837428450584412,0.1258345395326614,#
0.8111668825149536,-10.219745635986328,-1.0145567655563354,0.4068242609500885,2.085432529449463,0.0598630309104919,#
0.9523434042930604,-10.248459815979004,-0.8709874749183655,0.4813476204872131,2.186833143234253,0.0061084721237421,#
0.9523434042930604,-10.248459815979004,-0.8709874749183655,0.63283771276474,2.354205369949341,-0.0928487852215766,#
1.1437692642211914,-10.037891387939451,-0.7322037816047668,0.7061393857002258,2.4433889389038086,-0.1612636744976043,#
1.1389836072921753,-9.877571105957031,-0.7968099117279053,0.7635590434074402,2.6779544353485107,-0.287098228931427,#
1.3591231107711792,-9.970890998840332,-0.9212367534637452,0.8148701786994934,2.922293186187744,-0.4385882914066314,#
1.4739787578582764,-10.353742599487305,-1.1365907192230225,0.8014315962791443,3.0359108448028564,-0.4960079491138458,#
1.5649060010910034,-10.94716453552246,-0.9762716889381408,0.8832851052284241,3.294909954071045,-0.5961868762969971,#
1.5649060010910034,-10.94716453552246,-0.9762716889381408,1.066539287567139,3.56123948097229,-0.7464553117752075,#
1.7156537771224976,-10.494919776916504,-0.6412764191627502,1.1386191844940186,3.666305303573608,-0.8234220743179321,#
2.029113531112671,-10.494919776916504,-0.4737788736820221,1.1300673484802246,3.859333038330078,-0.95169997215271,#
2.4430718421936035,-11.365907669067385,-0.9834501147270204,1.0763128995895386,4.043808460235596,-1.0787562131881714,#
2.837887763977051,-12.75613784790039,-1.9525433778762815,1.0188932418823242,4.121997356414795,-1.1288456916809082,#
2.837887763977051,-12.75613784790039,-1.9525433778762815,1.1080769300460815,4.279595851898193,-1.2387982606887815,#
3.1178479194641118,-13.299307823181152,-1.8089739084243772,1.1911520957946775,4.376109600067139,-1.2913310527801514,#
3.1274189949035645,-12.76810073852539,-1.2538390159606934,1.3915101289749146,4.6632080078125,-1.3646327257156372,#
2.995814085006714,-13.021740913391112,-0.9451649785041808,1.594311237335205,4.92831563949585,-1.37684965133667,#
2.7326035499572754,-12.473784446716309,-0.4522434771060943,1.695711970329285,4.994287014007568,-1.3902883529663086,#
2.7326035499572754,-12.473784446716309,-0.4522434771060943,1.852088928222656,5.126230239868164,-1.4220523834228516,#
2.569891452789306,-11.35633659362793,-0.8949156999588013,1.8691924810409544,5.145777225494385,-1.4428211450576782,#
2.4287149906158447,-11.291730880737305,-1.529013752937317,1.766570210456848,5.184871196746826,-1.4452645778656006,#
1.998006820678711,-11.693723678588867,-1.0552347898483276,1.37684965133667,5.298489093780518,-1.37684965133667,#
1.2370892763137815,-11.657832145690918,-0.5575276613235474,1.2216944694519043,5.346135139465332,-1.3035480976104736,#
0.5766702890396118,-10.569098472595217,0.3062812983989715,1.1703832149505615,5.362017154693604,-1.1862653493881226,#
0.5766702890396118,-10.569098472595217,0.3062812983989715,0.9969027042388916,5.214192390441895,-1.0396620035171509,#
0.5790630578994751,-9.91107177734375,-0.8877372145652771,0.7195780277252197,5.083470344543457,-0.891836941242218,#
0.5766702890396118,-11.181660652160645,-2.1822540760040283,0.2284568697214126,4.713297367095947,-0.680483877658844,#
0.672383189201355,-12.916457176208496,-2.1343977451324463,-0.0476460866630077,4.5349297523498535,-0.4434750974178314,#
0.3924228847026825,-12.318251609802246,-1.576870083808899,-0.0256555844098329,4.547146797180176,-0.3213056325912475,#
0.3924228847026825,-12.318251609802246,-1.576870083808899,0.1331647038459777,4.566694259643555,-0.1893626451492309,#
-0.0119641125202178,-10.509278297424316,-1.2059825658798218,0.1942494213581085,4.536151885986328,-0.123391143977642,#
-0.5312066078186035,-9.920641899108888,-1.557727575302124,-0.0415376126766204,4.409095287322998,0.0219905003905296,#
-0.7369893789291382,-11.085947036743164,-2.062613010406494,-0.4581354260444641,4.089011669158936,0.1893626451492309,#
-0.5599204897880554,-10.676774978637695,-1.9716858863830569,-0.6035171151161194,3.83612060546875,0.2919849753379822,#
-0.5718846321105957,-10.277173042297363,-1.526620864868164,-0.6658235192298889,3.40119743347168,0.3982723951339721,#
-0.5718846321105957,-10.277173042297363,-1.526620864868164,-0.3762818872928619,3.1544151306152344,0.3689517080783844,#
-0.6532405614852905,-9.712467193603516,-1.4524433612823486,-0.3017585575580597,3.0444626808166504,0.3542913794517517,#
-1.026520848274231,-9.633503913879396,-1.3184452056884766,-0.3029802441596985,2.7561426162719727,0.3921639025211334,#
-1.3471590280532837,-9.66221809387207,-1.6965112686157229,-0.2492256760597229,2.505695581436157,0.4080459475517273,#
-1.6845470666885376,-9.470791816711426,-1.6965112686157229,-0.21135313808918,2.365200519561768,0.4056025743484497,#
-1.6845470666885376,-9.470791816711426,-1.6965112686157229,-0.1246128380298614,2.1575124263763428,0.4031591713428497,#
-1.7874385118484497,-9.750752449035645,-1.146162033081055,-0.0452026948332786,2.0756590366363525,0.3787252902984619,#
-1.6390833854675293,-9.635896682739258,-0.9667003750801086,0.1844758540391922,1.8643057346343996,0.287098228931427,#
-1.6175479888916016,-9.315258979797363,-0.9930213689804076,0.2858764827251434,1.6969337463378906,0.2211267054080963,#
-2.148754596710205,-9.351150512695312,-0.7106683850288391,0.2724378705024719,1.6309621334075928,0.2125748395919799,#
-2.4191436767578125,-9.425328254699709,-0.12921242415905,0.1588202863931656,1.453816533088684,0.2235700935125351,#
-2.4191436767578125,-9.425328254699709,-0.12921242415905,0.1490467190742492,1.26567542552948,0.2223483920097351,#
-2.651247262954712,-9.090332984924316,0.0119641125202178,0.1661504507064819,1.1911520957946775,0.200357899069786,#
-2.8761727809906006,-9.159724235534668,0.0239282250404357,0.130721315741539,1.0824213027954102,0.1563768982887268,#
-2.8833510875701904,-9.734003067016602,0.3852444589138031,0.1123958900570869,0.9920158982276917,0.1441599577665329,#
-2.8594231605529785,-9.743573188781738,-0.1411765366792678,0.1575985848903656,0.7207997441291809,0.1099525094032287,#
-2.8594231605529785,-9.743573188781738,-0.1411765366792678,0.2907632887363434,0.5717529654502869,0.0659715011715889,#
-3.098705530166626,-9.245866775512695,-0.1339980661869049,0.3371876776218414,0.5485408306121826,0.0561979450285434,#
-3.3164520263671875,-9.22433090209961,0.2751745879650116,0.3151971697807312,0.5302154421806335,0.0342074446380138,#
-3.201596736907959,-9.619147300720217,0.8494520783424377,0.2455605864524841,0.42270627617836,0.0134386392310261,#
-3.084348201751709,-9.66221809387207,0.8087739944458008,0.2162399291992187,0.3286358118057251,0.0109952501952648,#
-3.084348201751709,-9.66221809387207,0.8087739944458008,0.1441599577665329,0.2040229737758636,0.0171037223190069,#
-3.1992037296295166,-9.549755096435549,0.4091726541519165,0.0708582773804664,0.1820324808359146,0.0268772784620523,#
-3.225525140762329,-9.753145217895508,0.5288137793540955,0.0537545569241046,0.1685938388109207,0.0366508327424526,#
-3.1896328926086426,-9.834501266479492,0.851844847202301,0.0623064190149307,0.129499614238739,0.0354291386902332,#
-2.9766712188720703,-9.681360244750977,1.2658032178878784,0.0891837030649185,0.1197260618209838,0.0256555844098329,#
-3.0005996227264404,-10.02592658996582,1.6151552200317385,0.1343863904476165,0.1075091138482093,0.0109952501952648,#
-3.0005996227264404,-10.02592658996582,1.6151552200317385,0.2418954968452453,0.031764056533575,0.0256555844098329,#
-2.9766712188720703,-9.937392234802246,1.521835207939148,0.2761029601097107,0.0012216945178806,0.0293206684291362,#
-3.153740167617798,-9.695716857910156,1.0791629552841189,0.310310423374176,-0.0048867780715227,0.0537545569241046,#
-3.13938307762146,-9.573683738708496,1.3782659769058228,0.2651077210903168,0.0354291386902332,0.0745233595371246,#
-2.957528829574585,-9.564111709594728,1.6295121908187866,0.2455605864524841,0.0415376126766204,0.0769667476415634,#
-2.957528829574585,-9.564111709594728,1.6295121908187866,0.2394521236419677,0.0525328628718853,0.0635281130671501,#
-2.7589242458343506,-9.40379238128662,1.8951154947280884,0.2455605864524841,0.0598630309104919,0.0525328628718853,#
-2.9838497638702397,-9.384650230407717,1.9669002294540403,0.2186833024024963,0.0733016654849052,0.0671931952238082,#
-3.086741209030152,-9.628718376159668,1.7994027137756348,0.1649287492036819,0.0623064190149307,0.0818535313010215,#
-2.9934213161468506,-9.643074989318848,1.4883356094360352,0.128277912735939,0.0537545569241046,0.0855186134576797,#
-2.988635540008545,-9.418149948120115,1.4763716459274292,0.1062874197959899,0.0684148892760276,0.0940704718232154,#
-2.988635540008545,-9.418149948120115,1.4763716459274292,0.1148392781615257,0.1600419729948043,0.0940704718232154,#
-2.849851608276367,-9.241080284118652,1.8257235288619995,0.130721315741539,0.1930277347564697,0.0977355539798736,#
-2.933600425720215,-9.516255378723145,1.4787644147872925,0.1514901220798492,0.2333436459302902,0.0891837030649185,#
-3.239881753921509,-9.372685432434082,0.8159525394439697,0.1160609796643257,0.2761029601097107,0.0830752253532409,#
-3.292524099349976,-9.29611587524414,0.8207381367683411,0.0879620015621185,0.3090887069702148,0.0965138673782348,#
-3.292524099349976,-9.29611587524414,0.8207381367683411,0.0684148892760276,0.3139754831790924,0.1087308079004287,#
-2.995814085006714,-9.159724235534668,0.760917603969574,0.0842969194054603,0.3127537965774536,0.1062874197959899,#
-2.8354949951171875,-8.568697929382324,-0.5096712112426758,0.0867403075098991,0.3689517080783844,0.0879620015621185,#
-3.0077781677246094,-8.415557861328125,-1.761117458343506,-0.0354291386902332,0.4422534108161926,0.0952921733260154,#
-2.6560330390930176,-8.401200294494629,-2.6153552532196045,-0.1600419729948043,0.4520269632339477,0.1038440242409706,#
-2.6560330390930176,-8.401200294494629,-2.6153552532196045,-0.4666872918605804,0.3897205293178558,0.1062874197959899,#
-2.100898265838623,-8.578269004821777,-2.5914268493652344,-0.6829272508621216,0.393385648727417,0.1319430023431778,#
-2.062613010406494,-8.647661209106445,-3.4719858169555664,-0.6927007436752319,0.3726168274879455,0.129499614238739,#
-1.9142580032348635,-8.58305549621582,-4.8502516746521,-0.6902573704719543,0.2895416021347046,0.0671931952238082,#
-1.7443678379058838,-8.45862865447998,-6.788437843322754,-0.7660024166107178,0.2235700935125351,0.031764056533575,#
-1.131805181503296,-8.202595710754395,-8.365307807922363,-1.1019684076309204,-0.007330167107284,-0.0171037223190069,left
-1.131805181503296,-8.202595710754395,-8.365307807922363,-1.5149011611938477,-0.3078669905662536,-0.0647498071193695,left
0.0095712905749678,-8.788837432861328,-9.12383270263672,-1.6468441486358645,-0.4776825606822967,-0.1148392781615257,left
1.062413215637207,-9.80817985534668,-11.071590423583984,-1.7910041809082031,-0.8796200752258301,-0.3176405727863312,left
2.084148406982422,-9.4061861038208,-11.863614082336426,-1.5857594013214111,-1.453816533088684,-0.577861487865448,left
3.1657044887542725,-9.111868858337402,-12.51206874847412,-1.4868022203445437,-1.7286977767944336,-0.6303943395614624,left
3.1657044887542725,-9.111868858337402,-12.51206874847412,-1.572320818901062,-2.167285919189453,-0.7220214009284973,left
4.23529577255249,-10.176674842834473,-14.53400421142578,-1.766570210456848,-2.4226200580596924,-0.8099834322929382,left
6.293124198913574,-11.564510345458984,-16.692331314086914,-2.3297715187072754,-3.1605236530303955,-1.100746750831604,left
9.958927154541016,-12.818350791931152,-17.065610885620117,-2.9687178134918213,-4.335793972015381,-1.494132399559021,left
14.708681106567385,-14.019548416137695,-13.58644676208496,-3.062788248062134,-5.146998882293701,-1.7506881952285769,left
18.106489181518555,-16.139589309692383,-8.944371223449707,-2.880755424499512,-7.071167945861816,-2.438502311706543,left
18.106489181518555,-16.139589309692383,-8.944371223449707,-2.183168172836304,-9.361844062805176,-2.9748260974884038,left
19.396221160888672,-17.608781814575195,-7.133004188537598,-1.766570210456848,-10.309879302978516,-3.110434055328369,left
20.422740936279297,-15.589240074157717,-7.566104888916016,-1.3059914112091064,-11.662296295166016,-2.988264799118042,left
21.10469627380371,-13.452449798583984,-4.797609329223633,-2.770802974700928,-12.212059020996094,-2.597322702407837,left
20.221742630004883,-16.120445251464844,-4.266402721405029,-3.611328840255737,-12.497934341430664,-2.592435598373413,left
20.221742630004883,-16.120445251464844,-4.266402721405029,-4.227062702178955,-13.442304611206056,-2.9064111709594727,left
18.781265258789062,-16.570297241210938,-10.042675971984863,-4.272265911102295,-14.001840591430664,-3.062788248062134,left
18.867406845092773,-15.787843704223633,-14.39761447906494,-3.439069986343384,-14.254731178283691,-3.144641637802124,left
21.779470443725582,-18.66880226135254,-9.51386260986328,-1.5442218780517578,-13.835689544677734,-3.028580665588379,left
21.70290184020996,-15.701703071594238,-5.292923927307129,-0.5876350998878479,-13.38488483428955,-2.608317613601685,left
18.49651908874512,-9.19561767578125,-1.3351951837539673,0.8344173431396484,-10.52978515625,-2.006022453308105,left
18.49651908874512,-9.19561767578125,-1.3351951837539673,0.4605787992477417,-7.878707408905029,-1.0836429595947266,left
17.848064422607422,-11.002198219299316,3.012563943862915,0.1624853760004043,-6.900130748748779,-0.7708892226219177,left
15.632309913635254,-11.030912399291992,5.584848403930664,0.007330167107284,-5.140890121459961,-0.5668662190437317,left
12.46421241760254,-9.396614074707031,5.917449951171875,0.1954711079597473,-4.255161762237549,-0.4972296357154846,left
9.276973724365234,-9.990034103393556,5.146961212158203,0.1490467190742492,-2.649855375289917,-0.1575985848903656,left
9.276973724365234,-9.990034103393556,5.146961212158203,-0.2541124522686004,-1.2510151863098145,0.1441599577665329,left
5.161318302154541,-11.511869430541992,4.249652862548828,-0.2834331095218658,-0.6450546979904175,0.199136197566986,left
2.289931058883667,-11.21994400024414,2.8115665912628174,0.1136175915598869,0.2883199155330658,0.152711808681488,left
0.672383189201355,-9.879963874816896,1.6342979669570925,0.4569137394428253,0.5155550837516785,0.0171037223190069,left
-0.5958128571510315,-9.253045082092283,0.787238597869873,0.4740174412727356,0.577861487865448,-0.0390942245721817,left
-0.5958128571510315,-9.253045082092283,0.787238597869873,0.3665083348751068,0.8002098798751831,0.0195471122860908,left
-1.550549030303955,-9.286543846130373,-0.2440679222345352,0.2846547961235046,0.8857284784317017,0.0476460866630077,left
-2.1056838035583496,-9.535398483276367,-0.4283152520656585,0.1160609796643257,0.9578084945678712,0.0525328628718853,#
-2.4717857837677,-9.475577354431152,-0.6460621356964111,0.0891837030649185,0.8747332096099854,0.0635281130671501,#
-2.7326035499572754,-9.34875774383545,-0.8901299238204956,0.1172826737165451,0.8258654475212097,0.0818535313010215,#
-2.4335007667541504,-8.886943817138672,-1.277767300605774,0.2345653474330902,0.6694886088371277,0.0952921733260154,#
-2.4335007667541504,-8.886943817138672,-1.277767300605774,0.3200839459896087,0.4984513521194458,0.1111741960048675,#
-2.4909284114837646,-8.482556343078613,-1.4548362493515017,0.2919849753379822,0.4691306948661804,0.1148392781615257,#
-2.603391170501709,-8.901299476623535,-1.3304094076156616,0.199136197566986,0.4691306948661804,0.0733016654849052,#
-2.050648927688598,-9.087940216064451,-1.191625714302063,0.1429382413625717,0.4031591713428497,0.0684148892760276,#
-1.801795244216919,-9.260223388671877,-1.3471590280532837,0.1429382413625717,0.3603998720645904,0.0684148892760276,#
-1.801795244216919,-9.260223388671877,-1.3471590280532837,0.0733016654849052,0.3787252902984619,0.0598630309104919,#
-2.0171494483947754,-9.870393753051758,-1.3399806022644043,0.0867403075098991,0.4275930821895599,0.0525328628718853,#
-1.954936146736145,-10.234102249145508,-1.5242280960083008,0.175924003124237,0.463022232055664,0.0061084721237421,#
-1.777867317199707,-10.00439167022705,-1.1341978311538696,0.3298574984073639,0.4153760969638824,-0.0549762547016143,#
-1.950150489807129,-10.140782356262209,-0.8662018179893494,0.3286358118057251,0.3921639025211334,-0.0671931952238082,#
-2.1583259105682373,-10.064212799072266,-0.7585247755050659,0.3029802441596985,0.3811686933040619,-0.069636583328247,#
-2.1583259105682373,-10.064212799072266,-0.7585247755050659,0.2260134816169738,0.3762818872928619,-0.0513111688196659,#
-2.09850549697876,-10.047462463378906,-0.7776673436164856,0.1930277347564697,0.3457395434379577,-0.0354291386902332,#
-1.931007981300354,-10.277173042297363,-0.7465606331825256,0.152711808681488,0.2663294076919555,-0.0122169442474842,#
-1.9094725847244265,-9.951749801635742,-0.6293123364448547,0.1417165547609329,0.2296785563230514,0.0012216945178806,#
-1.916650891304016,-10.131211280822754,-0.6532405614852905,0.1014006435871124,0.2480039745569229,0.0061084721237421,#
-1.916650891304016,-10.131211280822754,-0.6532405614852905,0.069636583328247,0.2932066619396209,0.0085518611595034,#
-1.9334007501602173,-10.045069694519045,-0.7106683850288391,0.0549762547016143,0.2932066619396209,0.0244338884949684,#
-1.6821542978286743,-9.970890998840332,-0.5240281224250793,0.0916270837187767,0.2761029601097107,0.0329857505857944,#
-1.519442439079285,-10.262815475463867,-0.4666004180908203,0.1368297785520553,0.2467822879552841,0.0610847249627113,#
-1.3423734903335571,-10.152746200561523,-0.5383850932121277,0.1710372269153595,0.2455605864524841,0.0574196390807628,#
-1.3423734903335571,-10.152746200561523,-0.5383850932121277,0.2150182276964187,0.2638860046863556,0.0537545569241046,#
