accX,accY,accZ,gyrX,gyrY,gyrZ,annotation
9.382257461547852,-1.1437692642211914,1.7324036359786987,0.0146603342145681,-0.0195471122860908,0.0830752253532409,#
9.375079154968262,-1.146162033081055,1.8209381103515625,0.0146603342145681,-0.0293206684291362,0.0708582773804664,#
9.365508079528809,-1.2083754539489746,1.8616160154342647,0.0109952501952648,-0.0476460866630077,0.0427593067288398,#
9.365508079528809,-1.2083754539489746,1.8616160154342647,0.003665083553642,-0.0659715011715889,0.0134386392310261,#
9.396614074707031,-1.184447169303894,1.8185452222824097,-0.0024433890357613,-0.0708582773804664,0.0012216945178806,#
9.391828536987305,-1.160519003868103,1.94297194480896,-0.0207688063383102,-0.0781884491443634,-0.0219905003905296,#
9.523433685302734,-1.2370892763137815,1.921436548233032,-0.0415376126766204,-0.0806318372488021,-0.0427593067288398,#
9.499505043029783,-1.2490534782409668,1.9573287963867188,-0.0513111688196659,-0.0806318372488021,-0.0513111688196659,#
9.499505043029783,-1.2490534782409668,1.9573287963867188,-0.0745233595371246,-0.0806318372488021,-0.0684148892760276,#
9.473184585571287,-1.3543376922607422,1.8855443000793457,-0.0830752253532409,-0.0794101431965828,-0.0781884491443634,#
9.53779125213623,-1.3998013734817505,1.919043779373169,-0.0965138673782348,-0.0794101431965828,-0.0916270837187767,#
9.504291534423828,-1.3878371715545654,1.8616160154342647,-0.0989572554826736,-0.0867403075098991,-0.1062874197959899,#
9.523433685302734,-1.435693621635437,1.9262222051620483,-0.0977355539798736,-0.0928487852215766,-0.1123958900570869,#
9.585646629333496,-1.430907964706421,1.964507341384888,-0.0904053896665573,-0.1062874197959899,-0.129499614238739,#
9.585646629333496,-1.430907964706421,1.964507341384888,-0.0733016654849052,-0.123391143977642,-0.1514901220798492,#
9.609575271606444,-1.490728497505188,2.029113531112671,-0.0610847249627113,-0.128277912735939,-0.1624853760004043,#
9.528220176696776,-1.447657585144043,1.9884356260299685,-0.0488677769899368,-0.1331647038459777,-0.175924003124237,#
9.477970123291016,-1.5002998113632202,2.043470621109009,-0.0574196390807628,-0.129499614238739,-0.1722589135169983,#
9.33440113067627,-1.5050854682922363,2.0817556381225586,-0.0647498071193695,-0.1221694499254226,-0.1637070626020431,#
9.33440113067627,-1.5050854682922363,2.0817556381225586,-0.0830752253532409,-0.1062874197959899,-0.1404948681592941,#
9.489934921264648,-1.447657585144043,2.043470621109009,-0.0867403075098991,-0.0977355539798736,-0.128277912735939,#
9.60478973388672,-1.4261221885681152,2.031506299972534,-0.0842969194054603,-0.0769667476415634,-0.1123958900570869,#
9.707681655883787,-1.3375877141952517,2.014756679534912,-0.0818535313010215,-0.0513111688196659,-0.1050657257437706,#
9.844072341918944,-1.2729815244674685,1.8903299570083616,-0.0891837030649185,-0.0390942245721817,-0.1075091138482093,#
9.901500701904297,-1.196411371231079,1.8951154947280884,-0.130721315741539,-0.0195471122860908,-0.1075091138482093,#
9.901500701904297,-1.196411371231079,1.8951154947280884,-0.1832541674375534,-0.003665083553642,-0.1075091138482093,#
10.07139015197754,-1.3160523176193235,1.8831514120101929,-0.2040229737758636,0.0048867780715227,-0.1075091138482093,#
10.028319358825684,-1.210768222808838,1.7371891736984253,-0.2235700935125351,0.0305423624813556,-0.1014006435871124,#
9.970890998840332,-1.1629117727279663,1.758724570274353,-0.2260134816169738,0.0671931952238082,-0.0855186134576797,#
10.152746200561523,-0.8590233325958252,1.7012970447540283,-0.2260134816169738,0.0916270837187767,-0.0733016654849052,#
10.152746200561523,-0.8590233325958252,1.7012970447540283,-0.258999228477478,0.1392731666564941,-0.0390942245721817,#
10.420742988586426,-0.763310432434082,1.66301167011261,-0.2956500649452209,0.1624853760004043,-0.0244338884949684,#
10.65523910522461,-0.662811815738678,1.871187210083008,-0.3811686933040619,0.2174616158008575,0.0012216945178806,#
10.829915046691896,-0.5455635190010071,1.8999011516571045,-0.4495835602283478,0.2834331095218658,0.0452026948332786,#
10.695917129516602,-0.413958340883255,1.919043779373169,-0.4862344264984131,0.3237490355968475,0.0659715011715889,#
10.561919212341309,-0.229710966348648,1.9740787744522093,-0.5522059202194214,0.4153760969638824,0.123391143977642,#
10.561919212341309,-0.229710966348648,1.9740787744522093,-0.6084038615226746,0.5021164417266846,0.1698155403137207,#
10.329815864562988,-0.1124626696109771,2.2085752487182617,-0.6413896083831787,0.5436540246009827,0.1966928243637085,#
10.176674842834473,0.0861416235566139,2.2372891902923584,-0.680483877658844,0.5888567566871643,0.2370087206363678,#
9.820144653320312,0.260817676782608,2.3856441974639893,-0.6902573704719543,0.5949652194976807,0.2455605864524841,#
9.332008361816406,0.3565305471420288,2.823530912399292,-0.707361102104187,0.5656445622444153,0.2284568697214126,#
9.332008361816406,0.3565305471420288,2.823530912399292,-0.6890356540679932,0.5045598149299622,0.1539334952831268,#
8.71466064453125,0.3326023519039154,3.263810157775879,-0.6548282504081726,0.4740174412727356,0.0977355539798736,#
8.042276382446289,0.6412764191627502,3.395415067672729,-0.5302154421806335,0.393385648727417,-0.0378725305199623,#
7.496713638305664,0.6532405614852905,3.397808313369751,-0.4251496791839599,0.3200839459896087,-0.2028012871742248,#
7.372286796569824,0.935593605041504,3.3332018852233887,-0.3921639025211334,0.3090887069702148,-0.2932066619396209,#
7.372286796569824,0.935593605041504,3.3332018852233887,-0.3738385140895843,0.3298574984073639,-0.463022232055664,#
7.276573657989502,0.6173481941223145,3.414557933807373,-0.5375455617904663,0.3750602006912231,-0.6303943395614624,#
7.353143692016602,0.1794617027044296,3.438485860824585,-0.6646018028259277,0.3799469769001007,-0.6902573704719543,#
7.606783390045166,-0.0693918615579605,3.352344274520874,-0.8637380003929138,0.3616215586662292,-0.790436327457428,#
7.786244869232178,-0.6484549045562744,3.294916868209839,-1.0066763162612915,0.342074453830719,-0.8319739699363708,#
7.93699312210083,-0.9667003750801086,3.3475589752197266,-1.240019917488098,0.3054236173629761,-0.8588511943817139,#
7.93699312210083,-0.9667003750801086,3.3475589752197266,-1.3414205312728882,0.2748812437057495,-0.8612945675849915,#
8.00638484954834,-1.1748759746551514,3.517449140548706,-1.368297815322876,0.2675510942935943,-0.8380824327468872,#
8.015955924987793,-1.4811571836471558,3.634697675704956,-1.3963968753814695,0.2651077210903168,-0.7818844318389893,#
7.671389579772949,-1.4189438819885254,4.177868366241455,-1.4122787714004517,0.2895416021347046,-0.6963658928871155,#
7.357929229736328,-1.521835207939148,4.431507587432861,-1.4159438610076904,0.3066453039646148,-0.6450546979904175,#
7.357929229736328,-1.521835207939148,4.431507587432861,-1.4306042194366455,0.3347443044185638,-0.5155550837516785,#
7.130610942840576,-1.5720844268798828,4.826323509216309,-1.4489295482635498,0.3542913794517517,-0.4446967840194702,#
6.675975322723389,-1.5337992906570437,5.706881999969482,-1.452594757080078,0.4092676639556885,-0.2846547961235046,#
6.608975887298584,-1.495514154434204,6.424728870391846,-1.3426421880722046,0.4911211729049682,-0.1331647038459777,#
6.415157318115234,-1.5409778356552124,6.695117950439453,-1.2632319927215576,0.52655029296875,-0.0659715011715889,#
6.608975887298584,-1.7467604875564575,6.920042991638184,-1.1300673484802246,0.574196457862854,0.007330167107284,#
6.608975887298584,-1.7467604875564575,6.920042991638184,-0.95658677816391,0.6120689511299133,0.069636583328247,#
7.436892509460449,-2.043470621109009,7.121039390563965,-0.8441908955574036,0.6120689511299133,0.0781884491443634,#
7.984848976135254,-2.297109842300415,7.032505512237549,-0.6646018028259277,0.6096255779266357,0.0952921733260154,#
8.504091262817383,-2.4646072387695312,6.721438884735107,-0.549762487411499,0.6084038615226746,0.152711808681488,#
8.671588897705078,-2.579463005065918,6.372087001800537,-0.5241069197654724,0.5949652194976807,0.178367406129837,#
8.671588897705078,-2.579463005065918,6.372087001800537,-0.5204418301582336,0.5900784730911255,0.2528907656669616,#
8.38444995880127,-2.847458839416504,6.020341873168945,-0.5583143830299377,0.5974085927009583,0.3054236173629761,#
8.34855842590332,-3.122633695602417,5.199604034423828,-0.6413896083831787,0.5851916074752808,0.4410317242145538,#
9.336793899536133,-3.4169507026672363,4.486542701721191,-0.652384877204895,0.5424323678016663,0.5729747414588928,#
10.916057586669922,-4.158725738525391,4.67078971862793,-0.6291726231575012,0.5033381581306458,0.601073682308197,#
11.251051902770996,-4.278366565704346,4.445864677429199,-0.5705313086509705,0.3909422159194946,0.5289937257766724,#
11.251051902770996,-4.278366565704346,4.445864677429199,-0.4434750974178314,0.2932066619396209,0.4679089784622192,#
11.475976943969728,-4.34536600112915,4.034298896789551,-0.3494046330451965,0.2394521236419677,0.4764608442783355,#
12.098111152648926,-4.582255363464356,3.833301782608032,-0.2064663618803024,0.0733016654849052,0.4727957546710968,#
11.980863571166992,-4.742574691772461,3.869194030761719,-0.1905843466520309,-0.1417165547609329,0.4801259338855743,#
11.53579807281494,-5.201996326446533,4.424329280853272,-0.2174616158008575,-0.2577775418758392,0.4801259338855743,#
11.53579807281494,-5.201996326446533,4.424329280853272,-0.2272351831197738,-0.5241069197654724,0.463022232055664,#
10.403992652893066,-5.319244384765625,4.553541660308838,-0.1417165547609329,-0.6377245187759399,0.471574068069458,#
9.315258979797363,-4.804787635803223,4.043870449066162,0.1209477484226226,-0.7085827589035034,0.5595360994338989,#
8.717053413391113,-4.240081787109375,3.5270204544067383,0.4764608442783355,-0.6719319820404053,0.6389462351799011,#
8.86780071258545,-3.943371772766113,3.3379876613616943,0.6438329815864563,-0.6230642199516296,0.6536065340042114,#
9.097511291503906,-3.4097721576690674,3.31166672706604,0.8832851052284241,-0.5375455617904663,0.5473191142082214,#
9.097511291503906,-3.4097721576690674,3.31166672706604,1.0750911235809326,-0.4813476204872131,0.2785463333129883,#
8.796016693115234,-2.8354949951171875,3.146562099456787,1.1288456916809082,-0.4569137394428253,0.1429382413625717,#
8.300702095031738,-2.414358139038086,2.739781856536865,1.066539287567139,-0.4312581717967987,-0.0647498071193695,#
8.104490280151367,-2.177468776702881,2.266003131866455,0.939483106136322,-0.4495835602283478,-0.199136197566986,#
7.817351341247559,-2.0123636722564697,2.0865414142608643,0.5888567566871643,-0.445918470621109,-0.2296785563230514,#
7.817351341247559,-2.0123636722564697,2.0865414142608643,0.1698155403137207,-0.4043808877468109,-0.2883199155330658,#
7.724031925201416,-2.196611166000366,2.1343977451324463,-0.0525328628718853,-0.3823903799057007,-0.3066453039646148,#
7.527820110321045,-2.421536445617676,2.203789472579956,-0.445918470621109,-0.342074453830719,-0.3261924386024475,#
7.410572052001953,-2.9072794914245605,2.2157537937164307,-0.6682668924331665,-0.2846547961235046,-0.3213056325912475,#
7.353143692016602,-2.988635540008545,1.964507341384888,-0.7024743556976318,-0.261442631483078,-0.3176405727863312,#
7.353143692016602,-2.988635540008545,1.964507341384888,-0.634059488773346,-0.2101314514875412,-0.3029802441596985,#
7.28375244140625,-3.022134780883789,1.7132610082626345,-0.4654656052589416,-0.1514901220798492,-0.3029802441596985,#
7.427321434020996,-3.136990547180176,1.7682960033416748,-0.3738385140895843,-0.129499614238739,-0.2895416021347046,#
8.032705307006836,-3.194417953491211,2.053041696548462,-0.1368297785520553,-0.1453816443681717,-0.3029802441596985,#
8.824729919433594,-3.431307554244995,2.411965131759644,-0.0354291386902332,-0.1844758540391922,-0.3384093642234802,#
9.54496955871582,-3.7734813690185542,2.6847469806671143,0.1624853760004043,-0.2944283783435821,-0.4080459475517273,#
9.54496955871582,-3.7734813690185542,2.6847469806671143,0.4068242609500885,-0.3860554695129394,-0.4324798583984375,#
10.152746200561523,-3.99362063407898,2.8809585571289062,0.5326588153839111,-0.4153760969638824,-0.4263713657855987,#
10.380064964294434,-3.842873096466065,3.043670415878296,0.7256865501403809,-0.4312581717967987,-0.342074453830719,#
11.24866008758545,-4.027120590209961,3.6562328338623047,0.8551861643791199,-0.393385648727417,-0.2247917801141739,#
12.05025577545166,-4.199403762817383,4.247260093688965,0.9187142252922058,-0.3542913794517517,-0.1673721522092819,#
12.05025577545166,-4.199403762817383,4.247260093688965,1.0567656755447388,-0.2480039745569229,-0.0684148892760276,#
12.413965225219728,-3.5270204544067383,4.551148891448975,1.227802872657776,-0.1404948681592941,0.0048867780715227,#
12.476178169250488,-2.5914268493652344,4.431507587432861,1.2766708135604858,-0.0794101431965828,0.0268772784620523,#
12.011969566345217,-1.6103696823120115,4.00319242477417,1.2546802759170532,0.0378725305199623,0.0537545569241046,#
11.94497013092041,-0.9140582084655762,3.6059837341308594,1.1545013189315796,0.0965138673782348,0.0561979450285434,#
11.25344467163086,-0.8662018179893494,3.5198421478271484,0.7733326554298401,0.1649287492036819,0.0061084721237421,#
11.25344467163086,-0.8662018179893494,3.5198421478271484,0.200357899069786,0.1844758540391922,-0.0940704718232154,#
9.913464546203612,-1.581655740737915,3.565305471420288,-0.0940704718232154,0.2015795856714248,-0.1209477484226226,#
9.111868858337402,-1.9956141710281368,3.943371772766113,-0.5289937257766724,0.2101314514875412,-0.1710372269153595,#
8.334200859069824,-2.100898265838623,3.759124279022217,-0.6487197875976562,0.1869192570447921,-0.235787034034729,#
7.499105930328369,-1.674975872039795,3.067598581314087,-0.6352811455726624,0.2040229737758636,-0.2516690790653229,#
7.499105930328369,-1.674975872039795,3.067598581314087,-0.4837909936904907,0.3054236173629761,-0.2321219593286514,#
7.592426776885986,-1.0600204467773438,2.562713146209717,-0.3970507085323334,0.3579564988613128,-0.2260134816169738,#
7.403393745422363,-0.5096712112426758,2.3473589420318604,-0.3359659910202026,0.4752391576766968,-0.2321219593286514,#
7.446464061737059,-0.1459621787071228,2.3473589420318604,-0.4654656052589416,0.5375455617904663,-0.3005368411540985,#
7.087540626525879,-0.260817676782608,2.1343977451324463,-0.5827482342720032,0.5534276366233826,-0.3750602006912231,#
6.790830135345459,-0.5670989155769348,1.758724570274353,-0.8490777015686035,0.5534276366233826,-0.5241069197654724,#
6.790830135345459,-0.5670989155769348,1.758724570274353,-1.0628741979599,0.5008947253227234,-0.6193991303443909,#
6.539584159851074,-0.7968099117279053,1.5314064025878906,-1.1569446325302124,0.463022232055664,-0.6658235192298889,#
6.051448345184326,-1.105484127998352,1.3663017749786377,-1.290109395980835,0.3811686933040619,-0.7244647741317749,#
5.8097734451293945,-1.392622709274292,1.284945726394653,-1.349972367286682,0.2773246467113495,-0.7464553117752075,#
5.620740413665772,-1.672582983970642,1.2610174417495728,-1.3634110689163208,0.2174616158008575,-0.7476770281791687,#
5.620740413665772,-1.672582983970642,1.2610174417495728,-1.347529053688049,0.0904053896665573,-0.7537854909896851,#
5.477170467376709,-2.0410776138305664,1.2681961059570312,-1.3169866800308228,0.0244338884949684,-0.7562289237976074,#
5.623133182525635,-2.395215511322021,1.2825528383255005,-1.1532796621322632,-0.1148392781615257,-0.7330166697502136,#
6.113661766052246,-2.799602746963501,1.294516921043396,-0.905275583267212,-0.2602209150791168,-0.7525637745857239,#
6.522834300994873,-3.268595933914185,1.459621787071228,-0.712247908115387,-0.3310791850090027,-0.7574505805969238,#
7.125825881958008,-3.8261232376098633,1.674975872039795,-0.2907632887363434,-0.4434750974178314,-0.8148701786994934,#
7.125825881958008,-3.8261232376098633,1.674975872039795,0.1844758540391922,-0.5424323678016663,-0.8796200752258301,#
7.759923934936523,-4.041477203369141,1.864008903503418,0.4214845895767212,-0.5827482342720032,-0.9211575984954834,#
8.417949676513672,-4.182653903961182,2.148754596710205,0.813648521900177,-0.6621583700180054,-0.9626952409744264,#
8.73619556427002,-4.275973796844482,2.1439690589904785,1.1031900644302368,-0.726908266544342,-0.9639169573783876,#
8.894121170043945,-3.936193227767944,1.8185452222824097,1.2058125734329224,-0.7427902817726135,-0.926044464111328,#
8.894121170043945,-3.936193227767944,1.8185452222824097,1.2522368431091309,-0.7440119385719299,-0.8197570443153381,#
9.06879711151123,-3.658626079559326,1.7324036359786987,1.2106993198394775,-0.726908266544342,-0.7562289237976074,#
9.276973724365234,-3.38105845451355,1.7252250909805298,1.012784719467163,-0.6865922808647156,-0.6157339811325073,#
9.796216011047363,-3.4193434715271,1.777867317199707,0.6536065340042114,-0.6401678919792175,-0.4691306948661804,#
10.061819076538086,-3.670589685440064,1.6151552200317385,0.4495835602283478,-0.6377245187759399,-0.4019374847412109,#
10.64806079864502,-3.522234916687012,1.4787644147872925,0.178367406129837,-0.6560499668121338,-0.2932066619396209,#
10.64806079864502,-3.522234916687012,1.4787644147872925,0.0452026948332786,-0.7012526392936707,-0.1966928243637085,#
11.633904457092283,-3.548555850982666,1.2179466485977173,0.0219905003905296,-0.7293516397476196,-0.1588202863931656,#
13.99801254272461,-3.397808313369751,0.9308080077171326,0.0427593067288398,-0.8160918951034546,-0.1258345395326614,#
15.409777641296388,-3.9218363761901855,1.9262222051620483,0.0781884491443634,-0.8576295375823975,-0.2247917801141739,#
14.210973739624023,-4.620540142059326,2.9048867225646973,0.2480039745569229,-0.9138274788856506,-0.2797680497169494,#
14.210973739624023,-4.620540142059326,2.9048867225646973,0.73912513256073,-1.1044118404388428,-0.2382304221391677,#
13.098311424255373,-4.737788677215576,2.344966173171997,1.1312891244888306,-1.1496145725250244,-0.152711808681488,#
13.684553146362305,-4.584648132324219,1.160519003868103,1.9339423179626465,-1.1019684076309204,0.031764056533575,#
14.608181953430176,-3.6921253204345694,-0.1603191047906875,2.6913931369781494,-0.8319739699363708,0.2137965410947799,#
14.95035457611084,-2.6392831802368164,-0.9427721500396729,2.979712724685669,-0.6181774139404297,0.2980934381484985,#
14.95035457611084,-2.6392831802368164,-0.9427721500396729,3.2008395195007324,-0.0842969194054603,0.42270627617836,#
14.409578323364258,-2.0961124897003174,-1.1198409795761108,3.051792860031128,0.4520269632339477,0.4862344264984131,#
12.698708534240724,-1.9669002294540403,-0.9882357716560364,2.8624300956726074,0.660936713218689,0.5570926666259766,#
10.928021430969238,-2.2707886695861816,-0.5479563474655151,2.319998025894165,0.901610553264618,0.7232431173324585,#
9.81057357788086,-2.3976082801818848,-0.0765703245997428,2.050003290176392,0.9333745837211608,0.8344173431396484,#
9.090332984924316,-2.407179594039917,0.2991028428077698,1.674943208694458,0.8796200752258301,1.0555440187454224,#
9.090332984924316,-2.407179594039917,0.2991028428077698,1.5552170276641846,0.7696675062179565,1.2742273807525637,#
9.042476654052734,-2.6536402702331543,0.1770688742399215,1.573542594909668,0.7330166697502136,1.3841798305511477,#
9.09511947631836,-2.565105676651001,-0.0263210479170084,1.7396929264068604,0.726908266544342,1.5527737140655518,#
9.135796546936035,-2.376072883605957,-0.4402793645858764,1.9913619756698608,0.8417474627494812,1.6114150285720823,#
9.262616157531738,-1.8400806188583372,-0.8853443264961243,2.1196398735046387,0.929709494113922,1.6138584613800049,#
9.262616157531738,-1.8400806188583372,-0.8853443264961243,2.263799905776977,1.1545013189315796,1.538113355636597,#
9.30329418182373,-1.3232309818267822,-1.4668002128601074,2.1941633224487305,1.382958173751831,1.4391560554504397,#
9.21715259552002,-0.818345308303833,-1.574477195739746,2.0756590366363525,1.469698429107666,1.3805147409439087,#
9.207581520080566,-0.8255237936973572,-1.8065810203552248,1.706707239151001,1.5882028341293335,1.2510151863098145,#
9.415757179260254,-1.007378339767456,-1.931007981300354,1.4745851755142212,1.61874520778656,1.1826002597808838,#
9.62393283843994,-1.3136597871780396,-2.029113531112671,1.0201148986816406,1.595533013343811,1.0408836603164673,#
9.62393283843994,-1.3136597871780396,-2.029113531112671,0.6621583700180054,1.50757098197937,0.891836941242218,#
10.236495971679688,-1.447657585144043,-1.9142580032348635,0.5424323678016663,1.4367127418518066,0.8087617754936218,#
11.11466121673584,-1.411765456199646,-1.550549030303955,0.4275930821895599,1.248571753501892,0.5937435030937195,#
11.679367065429688,-1.6342979669570925,-1.0671988725662231,0.4813476204872131,0.9834640026092528,0.3591781854629516,#
11.799009323120115,-1.7012970447540283,-0.6747759580612183,0.5583143830299377,0.8270871639251709,0.2186833024024963,#
11.799009323120115,-1.7012970447540283,-0.6747759580612183,0.8002098798751831,0.4850127100944519,-0.0268772784620523,#
11.679367065429688,-1.3040882349014282,-0.0669990330934524,0.9309312105178832,0.3188622593879699,-0.129499614238739,#
11.964113235473633,-1.1365907192230225,-0.1028913781046867,1.0836429595947266,0.040315918624401,-0.2809897363185882,#
12.626924514770508,-0.8422735333442688,-0.3493521213531494,1.0726476907730105,-0.1930277347564697,-0.3799469769001007,#
11.385049819946287,-1.3328022956848145,0.6197410225868225,0.989572525024414,-0.256555825471878,-0.4471401870250702,#
8.748159408569336,-2.108076810836792,2.091326951980591,0.8478559851646423,-0.3603998720645904,-0.5729747414588928,#
8.748159408569336,-2.108076810836792,2.091326951980591,0.8576295375823975,-0.5204418301582336,-0.5864133238792419,#
8.10688304901123,-2.076970100402832,3.098705530166626,0.9382613897323608,-0.6377245187759399,-0.494786262512207,#
9.008977890014648,-2.227717876434326,3.510270833969116,1.1972606182098389,-0.8674030900001526,-0.2858764827251434,#
10.205389022827148,-1.9286150932312007,3.249453067779541,1.6859383583068848,-1.0787562131881714,-0.1270562261343002,#
11.454442024230955,-1.0887343883514404,2.2755744457244877,1.9583762884140012,-1.1508362293243408,-0.0598630309104919,#
11.454442024230955,-1.0887343883514404,2.2755744457244877,2.366422176361084,-1.1826002597808838,-0.0207688063383102,#
11.385049819946287,-0.6556334495544434,1.3519448041915894,2.455605745315552,-1.0824213027954102,0.0268772784620523,#
10.097711563110352,-0.3876372575759887,0.7896314859390259,2.296785831451416,-0.6169556975364685,0.1246128380298614,#
9.097511291503906,-0.1363908797502517,1.3232309818267822,1.837428450584412,-0.2382304221391677,0.1869192570447921,#
8.061419486999512,-0.5694918036460876,2.1846470832824707,1.5478869676589966,-0.1319430023431778,0.2382304221391677,#
8.061419486999512,-0.5694918036460876,2.1846470832824707,1.0323318243026731,-0.0439810007810592,0.3506263196468353,#
7.2335028648376465,-1.2538390159606934,2.5746772289276123,0.7794410586357117,-0.0977355539798736,0.3603998720645904,#
6.776473522186279,-1.84965181350708,2.3712873458862305,0.7806627750396729,-0.1429382413625717,0.3200839459896087,#
6.551548480987549,-2.132004976272583,2.031506299972534,0.9174925684928894,-0.2199050188064575,0.2309002727270126,#
6.67836856842041,-2.2372891902923584,2.048256158828736,1.035996913909912,-0.2577775418758392,0.1881409436464309,#
6.9511494636535645,-2.2372891902923584,2.0889341831207275,1.345085620880127,-0.3310791850090027,0.0977355539798736,#
6.9511494636535645,-2.2372891902923584,2.0889341831207275,1.673721432685852,-0.3860554695129394,-0.0109952501952648,#
7.219145774841309,-2.0961124897003174,2.1750757694244385,1.7983342409133911,-0.4019374847412109,-0.0623064190149307,#
7.82692289352417,-2.2085752487182617,2.321038007736206,1.9412726163864136,-0.4312581717967987,-0.1319430023431778,#
8.769694328308105,-2.210968255996704,2.376072883605957,2.039008140563965,-0.4495835602283478,-0.1624853760004043,#
9.53779125213623,-2.232503652572632,2.321038007736206,2.085432529449463,-0.445918470621109,-0.1600419729948043,#
9.53779125213623,-2.232503652572632,2.321038007736206,2.1477389335632324,-0.3823903799057007,-0.1185043603181839,#
9.559326171875,-2.1918253898620605,2.172683000564575,2.170951128005981,-0.235787034034729,-0.0171037223190069,#
9.446864128112791,-2.0123636722564697,1.7635102272033691,2.1770594120025635,-0.1392731666564941,0.0598630309104919,#
9.473184585571287,-1.5912269353866575,1.306481122970581,2.115974903106689,0.0598630309104919,0.256555825471878,#
9.738788604736328,-1.356730580329895,1.0911270380020142,2.045116662979126,0.1624853760004043,0.3640649616718292,#
10.12881851196289,-1.368694543838501,0.9667003750801086,1.8288766145706177,0.3481829464435577,0.5851916074752808,#
10.12881851196289,-1.368694543838501,0.9667003750801086,1.586981177330017,0.4642439186573028,0.7782194018363953,#
10.387242317199709,-1.3040882349014282,0.7776673436164856,1.469698429107666,0.5155550837516785,0.8539644479751587,#
10.451848983764648,-1.2538390159606934,0.6101697683334351,1.2424633502960205,0.5864133238792419,0.9773555994033812,#
10.334601402282717,-1.3710873126983645,0.1938186287879943,1.0616525411605835,0.5913001298904419,1.100746750831604,#
10.86341381072998,-1.124626636505127,-0.5168496966362,0.9834640026092528,0.5680879354476929,1.1569446325302124,#
10.86341381072998,-1.124626636505127,-0.5168496966362,0.833195686340332,0.4874561131000519,1.240019917488098,#
12.459427833557127,-0.7322037816047668,-0.6532405614852905,0.7647807598114014,0.4337015450000763,1.237576603889465,#
12.739388465881348,-1.0001999139785769,-0.1004985496401786,0.660936713218689,0.3530696928501129,1.1215155124664309,#
12.122039794921877,-1.7563319206237793,1.031306505203247,0.7440119385719299,0.1563768982887268,0.9455915093421936,#
10.906485557556152,-2.2995026111602783,1.864008903503418,0.8759549260139465,-0.0256555844098329,0.8173136115074158,#
10.82273769378662,-2.2612173557281494,1.574477195739746,1.2876659631729126,-0.4520269632339477,0.5876350998878479,#
10.82273769378662,-2.2612173557281494,1.574477195739746,1.837428450584412,-0.8050966858863831,0.4593571126461029,#
11.138589859008787,-2.230110645294189,0.9882357716560364,2.082988977432251,-0.8783983588218689,0.4153760969638824,#
11.645866394042969,-1.864008903503418,0.5000999569892883,2.515469074249268,-0.8955020904541016,0.3432961404323578,#
12.134003639221191,-1.584048628807068,0.0239282250404357,2.7463691234588623,-0.7818844318389893,0.2541124522686004,#
12.239288330078123,-1.4189438819885254,-0.3445664942264557,2.7781333923339844,-0.6817055344581604,0.2089097648859024,#
12.239288330078123,-1.4189438819885254,-0.3445664942264557,2.638859987258911,-0.4141544103622436,0.1356080919504165,#
11.38026523590088,-1.5529417991638184,-0.3038884699344635,2.497143507003784,-0.2577775418758392,0.1270562261343002,#
10.78684425354004,-1.9621145725250244,-0.138783723115921,2.178281307220459,-0.0354291386902332,0.1795890927314758,#
10.131211280822754,-2.2755744457244877,0.0406779870390892,1.910730242729187,0.1014006435871124,0.2895416021347046,#
9.499505043029783,-2.3712873458862305,0.1698903888463974,1.8264333009719849,0.1478250324726104,0.3591781854629516,#
9.499505043029783,-2.3712873458862305,0.1698903888463974,1.7775654792785645,0.1918060332536697,0.5021164417266846,#
8.994620323181152,-2.4670000076293945,0.3780659735202789,1.886296272277832,0.1942494213581085,0.6426112651824951,#
9.008977890014648,-2.421536445617676,0.3852444589138031,1.9767017364501955,0.1979145109653473,0.6927007436752319,#
9.332008361816406,-2.100898265838623,0.3062812983989715,2.1660642623901367,0.2162399291992187,0.758672297000885,#
9.365508079528809,-1.7850456237792969,0.0478564500808715,2.239366054534912,0.2455605864524841,0.7794410586357117,#
9.245866775512695,-1.6031911373138428,-0.1196411252021789,2.277238368988037,0.3530696928501129,0.8002098798751831,#
9.245866775512695,-1.6031911373138428,-0.1196411252021789,2.1733944416046143,0.471574068069458,0.8112051486968994,#
9.518648147583008,-1.4859429597854614,-0.3134597539901733,2.080545663833618,0.5351021885871887,0.813648521900177,#
9.58325481414795,-1.6701902151107788,-0.2584248483181,1.839871883392334,0.6377245187759399,0.8112051486968994,#
9.74835968017578,-1.9262222051620483,-0.3397807776927948,1.595533013343811,0.7134696245193481,0.8026533126831055,#
9.824929237365724,-2.256431579589844,-0.4163511395454407,1.4892456531524658,0.7330166697502136,0.8014315962791443,#
9.824929237365724,-2.256431579589844,-0.4163511395454407,1.326760172843933,0.7464553117752075,0.7769976854324341,#
9.93978500366211,-2.629711866378784,-0.4283152520656585,1.2827792167663574,0.7415685653686523,0.7721109390258789,#
10.44467067718506,-2.8977081775665283,-0.3684946894645691,1.241241693496704,0.712247908115387,0.7501204013824463,#
10.24606704711914,-3.084348201751709,-0.3158525824546814,1.2522368431091309,0.6646018028259277,0.7525637745857239,#
10.143176078796388,-3.1800613403320312,-0.1627119481563568,1.2742273807525637,0.6401678919792175,0.7684457898139954,#
10.25802993774414,-3.445664882659912,0.0430708117783069,1.3328686952590942,0.5729747414588928,0.813648521900177,#
10.25802993774414,-3.445664882659912,0.0430708117783069,1.4122787714004517,0.5070031881332397,0.8710681796073914,#
10.971091270446776,-3.3068809509277344,0.4115655124187469,1.4574815034866333,0.471574068069458,0.911384105682373,#
10.509278297424316,-2.957528829574585,0.8662018179893494,1.5698773860931396,0.4019374847412109,0.9956809878349304,#
9.999605178833008,-2.4909284114837646,1.0767701864242554,1.714037299156189,0.3200839459896087,1.0811996459960938,#
9.384650230407717,-2.069791555404663,1.0959126949310305,1.764126896858215,0.2919849753379822,1.119072198867798,#
9.384650230407717,-2.069791555404663,1.0959126949310305,1.7885607481002808,0.2785463333129883,1.1850436925888062,#
9.037691116333008,-1.856830358505249,1.155733346939087,1.7763437032699585,0.2699944972991943,1.1948171854019165,#
8.965906143188477,-1.6199408769607544,1.3375877141952517,1.6920467615127563,0.2467822879552841,1.1752701997756958,#
8.82951545715332,-1.5074783563613892,1.8305093050003047,1.5698773860931396,0.1795890927314758,1.1606097221374512,#
7.920242786407471,-1.6079767942428589,1.765903115272522,1.5136795043945312,0.1343863904476165,1.1398409605026243,#
7.680960178375244,-1.4500504732131958,1.584048628807068,1.3963968753814695,0.0537545569241046,1.1935955286026,#
7.680960178375244,-1.4500504732131958,1.584048628807068,1.2864443063735962,-0.0549762547016143,1.2986613512039185,#
8.523234367370605,-1.22033953666687,1.5720844268798828,1.2461284399032593,-0.1258345395326614,1.327981948852539,#
9.454042434692385,-0.9044869542121888,1.435693621635437,1.2143642902374268,-0.2528907656669616,1.3353121280670166,#
9.784252166748049,-0.5120640397071838,1.1629117727279663,1.1838220357894895,-0.3469612300395965,1.320651650428772,#
9.846465110778809,-0.3684946894645691,1.0815558433532717,1.1667182445526123,-0.3811686933040619,1.3084348440170288,#
9.846465110778809,-0.3684946894645691,1.0815558433532717,1.1202938556671145,-0.4361449182033539,1.257123589515686,#
9.8871431350708,-0.2225324809551239,1.2658032178878784,1.1031900644302368,-0.4618005454540252,1.225359559059143,#
9.633503913879396,-0.0741775035858154,1.1820544004440308,1.0970816612243652,-0.5289937257766724,1.1850436925888062,#
9.198010444641112,-0.0263210479170084,1.026520848274231,1.0396620035171509,-0.5693095922470093,1.1361758708953855,#
8.963513374328613,0.1651047617197036,0.8709874749183655,1.016449809074402,-0.577861487865448,1.1312891244888306,#
8.963513374328613,0.1651047617197036,0.8709874749183655,0.96147358417511,-0.5619794726371765,1.123958945274353,#
8.958727836608887,0.0933200791478157,0.9188438653945924,0.84541255235672,-0.52655029296875,1.0372185707092283,#
8.934800148010254,0.2392822504043579,0.969093143939972,0.7831061482429504,-0.5204418301582336,0.9834640026092528,#
8.812766075134277,0.2991028428077698,1.1533405780792236,0.6829272508621216,-0.5241069197654724,0.8380824327468872,#
8.774479866027832,-0.028713870793581,1.112662434577942,0.634059488773346,-0.53143709897995,0.7476770281791687,#
8.707481384277344,-0.1052841916680336,1.093519926071167,0.53143709897995,-0.5668662190437317,0.577861487865448,#
8.707481384277344,-0.1052841916680336,1.093519926071167,0.411711037158966,-0.5864133238792419,0.4007157981395721,#
9.291330337524414,-0.5958128571510315,1.1485549211502075,0.3469612300395965,-0.6035171151161194,0.3090887069702148,#
9.7005033493042,-0.9379864931106568,1.2227323055267334,0.2235700935125351,-0.634059488773346,0.1502684205770492,#
9.985249519348145,-1.3184452056884766,1.3519448041915894,0.1331647038459777,-0.6682668924331665,0.0134386392310261,#
10.042675971984863,-1.5433706045150757,1.5026925802230835,0.0977355539798736,-0.684148907661438,-0.0500894747674465,#
10.042675971984863,-1.5433706045150757,1.5026925802230835,0.0561979450285434,-0.7024743556976318,-0.1514901220798492,#
10.169495582580566,-1.9716858863830569,1.6199408769607544,0.0329857505857944,-0.7049177289009094,-0.1930277347564697,#
10.334601402282717,-2.1367905139923096,1.7922240495681765,0.0232121963053941,-0.7061393857002258,-0.2028012871742248,#
10.612168312072754,-2.0961124897003174,1.7754744291305542,0.0195471122860908,-0.7110261917114258,-0.2199050188064575,#
10.8370943069458,-2.218146562576294,1.8209381103515625,0.0280989725142717,-0.712247908115387,-0.2272351831197738,#
10.85384464263916,-2.227717876434326,1.6869399547576904,0.0366508327424526,-0.7110261917114258,-0.2467822879552841,#
10.85384464263916,-2.227717876434326,1.6869399547576904,0.0109952501952648,-0.7024743556976318,-0.2638860046863556,#
10.839487075805664,-2.368894338607788,1.588834285736084,-0.0171037223190069,-0.6927007436752319,-0.2699944972991943,#
10.755738258361816,-2.462214469909668,1.529013752937317,-0.0904053896665573,-0.6597149968147278,-0.2858764827251434,#
10.461421012878418,-2.567498683929444,1.5122638940811155,-0.1612636744976043,-0.6255075931549072,-0.2956500649452209,#
10.401599884033203,-2.63449764251709,1.4141581058502195,-0.1930277347564697,-0.6108472347259521,-0.3017585575580597,#
10.401599884033203,-2.63449764251709,1.4141581058502195,-0.2382304221391677,-0.5888567566871643,-0.3151971697807312,#
10.329815864562988,-2.7661027908325195,1.361515998840332,-0.2480039745569229,-0.5851916074752808,-0.3274141252040863,#
10.293922424316406,-2.8929224014282227,1.3471590280532837,-0.2516690790653229,-0.5729747414588928,-0.3506263196468353,#
10.176674842834473,-2.888136863708496,1.2705888748168943,-0.2345653474330902,-0.5656445622444153,-0.3591781854629516,#
10.05703353881836,-2.7732813358306885,1.0887343883514404,-0.2309002727270126,-0.5607577562332153,-0.3579564988613128,#
9.98285675048828,-2.823530912399292,1.124626636505127,-0.2309002727270126,-0.5399889945983887,-0.3494046330451965,#
9.98285675048828,-2.823530912399292,1.124626636505127,-0.2492256760597229,-0.5241069197654724,-0.3555130958557129,#
9.745966911315918,-2.8666017055511475,1.1102697849273682,-0.2577775418758392,-0.5192201733589172,-0.3591781854629516,#
9.664610862731934,-2.9072794914245605,1.0839486122131348,-0.2577775418758392,-0.5204418301582336,-0.3628432750701904,#
9.518648147583008,-2.854637384414673,0.9667003750801086,-0.235787034034729,-0.52655029296875,-0.3579564988613128,#
9.568897247314451,-2.837887763977051,0.882951557636261,-0.2186833024024963,-0.5253286361694336,-0.3518480062484741,#
9.568897247314451,-2.837887763977051,0.882951557636261,-0.1930277347564697,-0.5143333673477173,-0.3323009014129638,#
9.473184585571287,-2.71346116065979,0.9140582084655762,-0.1832541674375534,-0.5082249045372009,-0.3213056325912475,#
9.53779125213623,-2.746960401535034,0.9571290016174316,-0.1722589135169983,-0.4935645759105682,-0.2956500649452209,#
9.757929801940918,-2.715853452682495,0.9379864931106568,-0.1710372269153595,-0.4825693070888519,-0.2761029601097107,#
9.74835968017578,-2.68953275680542,0.8853443264961243,-0.1649287492036819,-0.4727957546710968,-0.2638860046863556,#
9.9469633102417,-2.65842604637146,0.851844847202301,-0.1368297785520553,-0.4385882914066314,-0.2406738102436065,#
9.9469633102417,-2.65842604637146,0.851844847202301,-0.1270562261343002,-0.4019374847412109,-0.2076880484819412,#
10.006784439086914,-2.6321046352386475,0.8877372145652771,-0.1319430023431778,-0.3823903799057007,-0.200357899069786,#
9.973284721374512,-2.5938196182250977,0.7106683850288391,-0.1429382413625717,-0.342074453830719,-0.1637070626020431,#
9.968499183654783,-2.423929214477539,0.5240281224250793,-0.1502684205770492,-0.2968717515468597,-0.1111741960048675,#
9.882357597351074,-2.3306093215942383,0.5288137793540955,-0.1563768982887268,-0.2724378705024719,-0.0806318372488021,#
9.882357597351074,-2.3306093215942383,0.5288137793540955,-0.175924003124237,-0.2333436459302902,-0.0280989725142717,#
9.834501266479492,-2.273181438446045,0.552742063999176,-0.1881409436464309,-0.2174616158008575,-0.0048867780715227,#
9.722038269042969,-2.09850549697876,0.48574298620224,-0.2052446752786636,-0.1930277347564697,0.0342074446380138,#
9.76989459991455,-2.146361827850342,0.4402793645858764,-0.2028012871742248,-0.1637070626020431,0.0598630309104919,#
9.712467193603516,-1.9764715433120728,0.3349951505661011,-0.1881409436464309,-0.1514901220798492,0.0684148892760276,#
9.712467193603516,-1.9764715433120728,0.3349951505661011,-0.1478250324726104,-0.1172826737165451,0.0781884491443634,#
9.633503913879396,-1.8592231273651123,0.3397807776927948,-0.129499614238739,-0.0904053896665573,0.0842969194054603,#
9.588040351867676,-1.8161523342132568,0.2895315289497375,-0.0965138673782348,-0.0794101431965828,0.0855186134576797,#
9.568897247314451,-1.777867317199707,0.1866401582956314,-0.0757450610399246,-0.0623064190149307,0.0855186134576797,#
9.57607650756836,-1.797009825706482,0.1196411252021789,-0.0708582773804664,-0.0549762547016143,0.0830752253532409,#
9.678967475891112,-1.761117458343506,0.0933200791478157,-0.0659715011715889,-0.040315918624401,0.0745233595371246,#
9.678967475891112,-1.761117458343506,0.0933200791478157,-0.0623064190149307,-0.0293206684291362,0.0635281130671501,#
9.640682220458984,-1.739582061767578,0.0669990330934524,-0.0610847249627113,-0.0232121963053941,0.0574196390807628,#
9.731609344482422,-1.7730815410614014,-0.0239282250404357,-0.0561979450285434,-0.0134386392310261,0.0476460866630077,#
9.772287368774414,-1.7706886529922483,-0.0167497582733631,-0.0488677769899368,-0.0085518611595034,0.0366508327424526,#
9.741181373596191,-1.797009825706482,-0.0837487876415252,-0.0452026948332786,-0.0061084721237421,0.0342074446380138,#
9.741181373596191,-1.797009825706482,-0.0837487876415252,-0.0378725305199623,-0.003665083553642,0.0268772784620523,#
9.722038269042969,-1.7874385118484497,-0.114855483174324,-0.0354291386902332,-0.0012216945178806,0.0219905003905296,#
9.7005033493042,-1.8281164169311523,-0.1268195956945419,-0.031764056533575,-0.0012216945178806,0.0158820282667875,#
9.628718376159668,-1.8783657550811768,-0.1435693651437759,-0.0268772784620523,0.0012216945178806,0.0085518611595034,#
9.7005033493042,-1.8161523342132568,-0.1555334776639938,-0.0268772784620523,0.0012216945178806,0.0061084721237421,#
9.707681655883787,-1.856830358505249,-0.1627119481563568,-0.0232121963053941,0.0012216945178806,0.003665083553642,#
9.707681655883787,-1.856830358505249,-0.1627119481563568,-0.0195471122860908,0.0012216945178806,-0.0024433890357613,#
9.55214786529541,-1.8305093050003047,-0.1244267746806144,-0.0183254163712263,0.0012216945178806,-0.0061084721237421,#
9.592825889587402,-1.8257235288619995,-0.246460735797882,-0.0195471122860908,-0.0012216945178806,-0.0109952501952648,#
9.681360244750977,-1.8209381103515625,-0.2536391913890838,-0.0171037223190069,-0.0048867780715227,-0.0171037223190069,#
9.678967475891112,-1.835294842720032,-0.2392822504043579,-0.0183254163712263,-0.007330167107284,-0.0195471122860908,#
9.678967475891112,-1.835294842720032,-0.2392822504043579,-0.0256555844098329,-0.0122169442474842,-0.0268772784620523,#
9.68375301361084,-1.8113667964935305,-0.1674975752830505,-0.0293206684291362,-0.0146603342145681,-0.0305423624813556,#
9.688538551330566,-1.938186287879944,-0.2201396822929382,-0.0354291386902332,-0.0207688063383102,-0.0354291386902332,#
9.58325481414795,-1.8951154947280884,-0.1698903888463974,-0.040315918624401,-0.0293206684291362,-0.0415376126766204,#
9.7005033493042,-2.031506299972534,-0.1435693651437759,-0.0415376126766204,-0.031764056533575,-0.0464243926107883,#
9.667003631591797,-1.969292998313904,-0.1459621787071228,-0.0427593067288398,-0.0415376126766204,-0.0513111688196659,#
9.667003631591797,-1.969292998313904,-0.1459621787071228,-0.040315918624401,-0.0488677769899368,-0.0525328628718853,#
9.57607650756836,-1.947757601737976,-0.1842473447322845,-0.040315918624401,-0.0525328628718853,-0.0513111688196659,#
9.674181938171388,-2.0817556381225586,-0.1196411252021789,-0.0390942245721817,-0.0586413368582725,-0.0476460866630077,#
9.640682220458984,-2.031506299972534,-0.0933200791478157,-0.0390942245721817,-0.0635281130671501,-0.0415376126766204,#
9.724431037902832,-2.0650060176849365,-0.0502492748200893,-0.0329857505857944,-0.0647498071193695,-0.0280989725142717,#
9.724431037902832,-2.0650060176849365,-0.0502492748200893,-0.0256555844098329,-0.0659715011715889,-0.0109952501952648,#
9.686145782470703,-1.9669002294540403,-0.0861416235566139,-0.0232121963053941,-0.0647498071193695,-0.0061084721237421,#
9.580862045288086,-1.964507341384888,-0.0311066936701536,-0.0207688063383102,-0.0586413368582725,0.0012216945178806,#
9.621540069580078,-1.935793399810791,-0.0143569353967905,-0.0146603342145681,-0.0549762547016143,0.0085518611595034,#
9.611968994140623,-1.9142580032348635,-0.0502492748200893,-0.0109952501952648,-0.0525328628718853,0.0109952501952648,#
9.611968994140623,-1.9142580032348635,-0.0502492748200893,-0.0109952501952648,-0.0452026948332786,0.0122169442474842,#
9.568897247314451,-1.902293920516968,-0.0837487876415252,-0.0134386392310261,-0.0390942245721817,0.0109952501952648,#
9.755537986755373,-1.7874385118484497,0.0095712905749678,-0.0158820282667875,-0.0354291386902332,0.0085518611595034,#
9.686145782470703,-1.902293920516968,-0.0334995165467262,-0.0195471122860908,-0.0305423624813556,0.003665083553642,#
9.640682220458984,-1.8472589254379272,-0.0454636327922344,-0.0207688063383102,-0.0256555844098329,0.0024433890357613,#
9.55214786529541,-1.8472589254379272,0.0047856452874839,-0.0232121963053941,-0.0171037223190069,0.0024433890357613,#
9.55214786529541,-1.8472589254379272,0.0047856452874839,-0.0244338884949684,-0.0085518611595034,0.0024433890357613,#
9.549755096435549,-1.919043779373169,-0.0358923412859439,-0.0244338884949684,-0.007330167107284,0.0012216945178806,#
9.533005714416504,-1.8855443000793457,-0.0311066936701536,-0.0207688063383102,-0.0061084721237421,-0.0012216945178806,#
9.600004196166992,-1.8400806188583372,-0.1220339611172676,-0.0158820282667875,-0.0061084721237421,-0.0061084721237421,#
9.611968994140623,-1.8376877307891848,-0.1196411252021789,-0.0146603342145681,-0.003665083553642,-0.007330167107284,#
9.611968994140623,-1.8376877307891848,-0.1196411252021789,-0.0109952501952648,0.0012216945178806,-0.007330167107284,#
9.571290969848633,-1.9070796966552732,-0.0669990330934524,-0.0122169442474842,0.0024433890357613,-0.0061084721237421,#
9.681360244750977,-1.84965181350708,-0.0239282250404357,-0.0183254163712263,0.0024433890357613,-0.0085518611595034,#
9.63828945159912,-1.8281164169311523,-0.0909272655844688,-0.0244338884949684,0.0048867780715227,-0.0122169442474842,#
9.62393283843994,-1.856830358505249,-0.1196411252021789,-0.0256555844098329,0.007330167107284,-0.0122169442474842,#
9.609575271606444,-1.8903299570083616,-0.1268195956945419,-0.0207688063383102,0.0134386392310261,-0.007330167107284,#
9.609575271606444,-1.8903299570083616,-0.1268195956945419,-0.0122169442474842,0.0183254163712263,-0.0012216945178806,#
9.640682220458984,-1.8903299570083616,-0.1268195956945419,-0.0122169442474842,0.0195471122860908,0.0012216945178806,#
9.628718376159668,-1.8089739084243772,-0.138783723115921,-0.007330167107284,0.0219905003905296,0.003665083553642,#
9.621540069580078,-1.8903299570083616,-0.2488535493612289,-0.003665083553642,0.0244338884949684,0.007330167107284,#
9.657432556152344,-1.8616160154342647,-0.2632104754447937,-0.0061084721237421,0.0256555844098329,0.0061084721237421,#
9.657432556152344,-1.8616160154342647,-0.2632104754447937,-0.0097735561430454,0.0232121963053941,0.0012216945178806,#
9.66221809387207,-1.7874385118484497,-0.2129612118005752,-0.0122169442474842,0.0207688063383102,-0.003665083553642,#
9.726823806762695,-1.8975083827972408,-0.2057827562093734,-0.0183254163712263,0.0109952501952648,-0.0146603342145681,#
9.667003631591797,-1.959721684455872,-0.2656033039093017,-0.0171037223190069,0.003665083553642,-0.0171037223190069,#
9.712467193603516,-1.8903299570083616,-0.2751745879650116,-0.0207688063383102,0.003665083553642,-0.0171037223190069,#
9.707681655883787,-1.9621145725250244,-0.1555334776639938,-0.0268772784620523,0.0024433890357613,-0.0171037223190069,#
9.707681655883787,-1.9621145725250244,-0.1555334776639938,-0.0293206684291362,0.0024433890357613,-0.0134386392310261,#
9.650253295898438,-1.8999011516571045,-0.236889436841011,-0.0268772784620523,-0.0012216945178806,-0.0122169442474842,#
9.60478973388672,-1.8927226066589355,-0.2967100143432617,-0.0207688063383102,-0.0048867780715227,-0.0061084721237421,#
9.595218658447266,-1.8664016723632808,-0.2512463629245758,-0.0171037223190069,-0.0061084721237421,-0.0048867780715227,#
9.7005033493042,-1.782652735710144,-0.1962114423513412,-0.0122169442474842,-0.007330167107284,-0.0048867780715227,#
9.7005033493042,-1.782652735710144,-0.1962114423513412,-0.0183254163712263,-0.007330167107284,-0.0109952501952648,#
9.640682220458984,-1.777867317199707,-0.1483550071716308,-0.0268772784620523,-0.0085518611595034,-0.0158820282667875,#
9.616753578186035,-1.7874385118484497,-0.2177468687295913,-0.031764056533575,-0.0061084721237421,-0.0232121963053941,#
9.657432556152344,-1.8185452222824097,-0.2536391913890838,-0.0329857505857944,-0.0061084721237421,-0.0305423624813556,#
9.609575271606444,-1.765903115272522,-0.2249253392219543,-0.031764056533575,0.0012216945178806,-0.0329857505857944,#
9.609575271606444,-1.765903115272522,-0.2249253392219543,-0.0390942245721817,0.007330167107284,-0.0366508327424526,#
9.619147300720217,-1.8664016723632808,-0.1459621787071228,-0.0513111688196659,0.0158820282667875,-0.0366508327424526,#
9.719645500183104,-1.8664016723632808,-0.2536391913890838,-0.0561979450285434,0.0219905003905296,-0.040315918624401,#
9.635896682739258,-1.9046868085861208,-0.1316052377223968,-0.0537545569241046,0.0342074446380138,-0.0390942245721817,#
9.616753578186035,-1.8783657550811768,-0.1459621787071228,-0.0513111688196659,0.0390942245721817,-0.0378725305199623,#
9.53779125213623,-1.931007981300354,-0.2129612118005752,-0.0452026948332786,0.0476460866630077,-0.0280989725142717,#
9.53779125213623,-1.931007981300354,-0.2129612118005752,-0.0476460866630077,0.0598630309104919,-0.0183254163712263,#
9.585646629333496,-1.8999011516571045,-0.1938186287879943,-0.0513111688196659,0.0647498071193695,-0.0146603342145681,#
9.509077072143556,-1.887937068939209,-0.0622133873403072,-0.0561979450285434,0.0769667476415634,-0.0024433890357613,#
9.564111709594728,-1.8927226066589355,-0.1866401582956314,-0.0610847249627113,0.0830752253532409,0.0085518611595034,#
9.580862045288086,-1.8975083827972408,-0.1483550071716308,-0.0635281130671501,0.0867403075098991,0.0146603342145681,#
9.580862045288086,-1.8975083827972408,-0.1483550071716308,-0.0610847249627113,0.0965138673782348,0.0256555844098329,#
9.573683738708496,-1.9094725847244265,-0.1316052377223968,-0.0623064190149307,0.1038440242409706,0.0305423624813556,#
9.741181373596191,-1.7635102272033691,-0.1483550071716308,-0.0671931952238082,0.1160609796643257,0.0354291386902332,#
9.650253295898438,-1.852044701576233,-0.2632104754447937,-0.0708582773804664,0.129499614238739,0.0427593067288398,#
9.664610862731934,-1.8257235288619995,-0.1531406491994857,-0.0757450610399246,0.1392731666564941,0.0476460866630077,#
9.753145217895508,-1.7706886529922483,-0.1459621787071228,-0.0842969194054603,0.1563768982887268,0.0537545569241046,#
9.753145217895508,-1.7706886529922483,-0.1459621787071228,-0.0879620015621185,0.1637070626020431,0.0549762547016143,#
9.796216011047363,-1.7730815410614014,-0.1411765366792678,-0.0879620015621185,0.1673721522092819,0.0513111688196659,#
9.93978500366211,-1.8161523342132568,-0.138783723115921,-0.0879620015621185,0.1661504507064819,0.0500894747674465,#
9.997212409973145,-1.7563319206237793,-0.0598205626010894,-0.0916270837187767,0.1747023165225982,0.0561979450285434,#
9.944571495056152,-1.7180466651916504,-0.1220339611172676,-0.0928487852215766,0.1820324808359146,0.0635281130671501,#
9.944571495056152,-1.7180466651916504,-0.1220339611172676,-0.1038440242409706,0.199136197566986,0.0781884491443634,#
9.913464546203612,-1.636690616607666,-0.1746760606765747,-0.1123958900570869,0.2076880484819412,0.0855186134576797,#
9.973284721374512,-1.5864413976669312,-0.0502492748200893,-0.130721315741539,0.2211267054080963,0.0904053896665573,#
9.990034103393556,-1.521835207939148,-0.0406779870390892,-0.1343863904476165,0.2260134816169738,0.0940704718232154,#
9.954142570495604,-1.4787644147872925,-0.0263210479170084,-0.130721315741539,0.2247917801141739,0.0891837030649185,#
9.992427825927734,-1.5074783563613892,0.0933200791478157,-0.1246128380298614,0.2186833024024963,0.0733016654849052,#
9.992427825927734,-1.5074783563613892,0.0933200791478157,-0.1209477484226226,0.2089097648859024,0.0525328628718853,#
10.01874828338623,-1.5314064025878906,0.1028913781046867,-0.1160609796643257,0.2015795856714248,0.0464243926107883,#
9.91107177734375,-1.6199408769607544,0.2081755697727203,-0.1014006435871124,0.1905843466520309,0.0366508327424526,#
9.954142570495604,-1.66301167011261,0.318245381116867,-0.0733016654849052,0.1856975704431533,0.0342074446380138,#
9.954142570495604,-1.672582983970642,0.413958340883255,-0.0574196390807628,0.1844758540391922,0.0342074446380138,#
9.954142570495604,-1.672582983970642,0.413958340883255,-0.0280989725142717,0.1869192570447921,0.0366508327424526,#
9.863215446472168,-1.7012970447540283,0.4091726541519165,-0.0158820282667875,0.1918060332536697,0.0390942245721817,#
9.901500701904297,-1.7491532564163208,0.4163511395454407,-0.0012216945178806,0.200357899069786,0.0427593067288398,#
9.7938232421875,-1.7371891736984253,0.4713860750198364,0.0195471122860908,0.21135313808918,0.0439810007810592,#
9.76271629333496,-1.7563319206237793,0.5599204897880554,0.0280989725142717,0.2162399291992187,0.0500894747674465,#
9.76271629333496,-1.7563319206237793,0.5599204897880554,0.040315918624401,0.2211267054080963,0.0598630309104919,#
9.76271629333496,-1.761117458343506,0.5814558863639832,0.0500894747674465,0.2235700935125351,0.0610847249627113,#
9.731609344482422,-1.8161523342132568,0.4953142702579498,0.0720799788832664,0.235787034034729,0.0684148892760276,#
9.58325481414795,-1.7874385118484497,0.4474578499794006,0.0855186134576797,0.2504473626613617,0.0733016654849052,#
9.509077072143556,-1.741974949836731,0.48574298620224,0.0904053896665573,0.2577775418758392,0.0769667476415634,#
9.501898765563965,-1.6989041566848757,0.413958340883255,0.0891837030649185,0.2712161839008331,0.0867403075098991,#
9.501898765563965,-1.6989041566848757,0.413958340883255,0.0745233595371246,0.2809897363185882,0.0928487852215766,#
9.480363845825195,-1.641476273536682,0.3996013700962066,0.0671931952238082,0.2846547961235046,0.0977355539798736,#
9.66221809387207,-1.672582983970642,0.4402793645858764,0.0574196390807628,0.2907632887363434,0.0977355539798736,#
9.820144653320312,-1.6462620496749878,0.3732803165912628,0.0561979450285434,0.2968717515468597,0.0989572554826736,#
9.851251602172852,-1.5984054803848269,0.3421736359596252,0.0537545569241046,0.3029802441596985,0.1026223376393318,#
9.851251602172852,-1.5984054803848269,0.3421736359596252,0.0354291386902332,0.3261924386024475,0.1123958900570869,#
10.03549861907959,-1.4715858697891235,0.3541377484798431,0.0134386392310261,0.3384093642234802,0.1209477484226226,#
10.102496147155762,-1.497907042503357,0.2440679222345352,-0.031764056533575,0.3762818872928619,0.1368297785520553,#
10.054640769958496,-1.5481561422348022,0.1770688742399215,-0.069636583328247,0.416597843170166,0.1698155403137207,#
10.083355903625488,-1.4404792785644531,0.1555334776639938,-0.0769667476415634,0.4337015450000763,0.1893626451492309,#
9.96371364593506,-1.4452648162841797,0.114855483174324,-0.0684148892760276,0.4593571126461029,0.235787034034729,#
9.96371364593506,-1.4452648162841797,0.114855483174324,-0.0427593067288398,0.4727957546710968,0.2907632887363434,#
10.009177207946776,-1.3639088869094849,0.0885344371199607,-0.0342074446380138,0.4764608442783355,0.3151971697807312,#
9.877571105957031,-1.411765456199646,0.0741775035858154,-0.0122169442474842,0.4850127100944519,0.3542913794517517,#
9.7005033493042,-1.4859429597854614,0.0957129001617431,0.0280989725142717,0.4972296357154846,0.3897205293178558,#
9.578469276428224,-1.5050854682922363,0.1746760606765747,0.0525328628718853,0.499673068523407,0.4080459475517273,#
9.578469276428224,-1.5050854682922363,0.1746760606765747,0.0904053896665573,0.4960079491138458,0.4410317242145538,#
9.432506561279297,-1.4620146751403809,0.3206382095813751,0.1038440242409706,0.4923428893089294,0.4569137394428253,#
9.458827018737791,-1.5912269353866575,0.5096712112426758,0.0952921733260154,0.4825693070888519,0.4776825606822967,#
9.470791816711426,-1.9621145725250244,0.8303093910217285,0.0598630309104919,0.4642439186573028,0.4874561131000519,#
9.757929801940918,-2.225324869155884,1.0719845294952393,0.0476460866630077,0.463022232055664,0.4972296357154846,#
9.755537986755373,-2.25403904914856,1.2514461278915403,0.0476460866630077,0.4593571126461029,0.52655029296875,#
9.755537986755373,-2.25403904914856,1.2514461278915403,0.0513111688196659,0.4569137394428253,0.5570926666259766,#
9.882357597351074,-2.196611166000366,1.3399806022644043,0.031764056533575,0.4422534108161926,0.5680879354476929,#
9.7938232421875,-2.280359983444214,1.5337992906570437,-0.0415376126766204,0.4337015450000763,0.5387672781944275,#
9.846465110778809,-2.2851457595825195,1.8233308792114256,-0.0684148892760276,0.4202629029750824,0.5106682777404785,#
9.734003067016602,-2.438286304473877,2.03629207611084,-0.1343863904476165,0.3640649616718292,0.4373666048049927,#
9.734003067016602,-2.438286304473877,2.03629207611084,-0.1624853760004043,0.2675510942935943,0.3151971697807312,#
9.791430473327637,-2.6775684356689453,2.304288148880005,-0.1539334952831268,0.2064663618803024,0.2418954968452453,#
9.753145217895508,-3.13938307762146,2.483749866485596,-0.0916270837187767,0.0781884491443634,0.1014006435871124,#
9.516255378723145,-3.4983065128326416,2.7876384258270264,0.0183254163712263,-0.0293206684291362,-0.0342074446380138,#
9.332008361816406,-3.8907296657562256,2.988635540008545,0.0867403075098991,-0.0757450610399246,-0.0989572554826736,#
9.332008361816406,-3.8907296657562256,2.988635540008545,0.2504473626613617,-0.1441599577665329,-0.2101314514875412,#
9.198010444641112,-4.005585193634033,2.959921598434448,0.3359659910202026,-0.175924003124237,-0.2516690790653229,#
9.32004451751709,-4.125226020812988,3.074777126312256,0.5094466209411621,-0.2064663618803024,-0.3225273489952087,#
9.396614074707031,-4.256831645965576,3.201596736907959,0.5913001298904419,-0.2309002727270126,-0.3665083348751068,#
9.245866775512695,-4.118047714233398,3.1058835983276367,0.6096255779266357,-0.2345653474330902,-0.3823903799057007,#
9.286543846130373,-4.053441524505615,2.981456995010376,0.5888567566871643,-0.235787034034729,-0.3872771561145782,#
9.286543846130373,-4.053441524505615,2.981456995010376,0.4752391576766968,-0.2406738102436065,-0.3738385140895843,#
9.20040225982666,-4.043870449066162,2.926422357559204,0.3909422159194946,-0.2333436459302902,-0.3542913794517517,#
8.999405860900879,-4.218546390533447,3.1058835983276367,0.2235700935125351,-0.2089097648859024,-0.3139754831790924,#
8.74337387084961,-4.261617183685303,3.1728827953338623,0.1123958900570869,-0.1820324808359146,-0.258999228477478,#
8.343771934509277,-4.1036906242370605,3.0269205570220947,0.0781884491443634,-0.1685938388109207,-0.2272351831197738,#
8.343771934509277,-4.1036906242370605,3.0269205570220947,0.0610847249627113,-0.128277912735939,-0.1575985848903656,#
8.202595710754395,-4.027120590209961,2.9623143672943115,0.0635281130671501,-0.1038440242409706,-0.1258345395326614,#
8.147561073303223,-4.034298896789551,3.036492109298706,0.0464243926107883,-0.0427593067288398,-0.0684148892760276,#
8.260024070739746,-4.199403762817383,3.053241729736328,0.0598630309104919,0.0268772784620523,-0.0146603342145681,#
8.276773452758789,-3.964907169342041,2.8283162117004395,0.0952921733260154,0.0635281130671501,0.0146603342145681,#
8.13798999786377,-3.6945178508758554,2.5842485427856445,0.1844758540391922,0.1392731666564941,0.0830752253532409,#
8.13798999786377,-3.6945178508758554,2.5842485427856445,0.2345653474330902,0.2260134816169738,0.1563768982887268,#
8.118846893310547,-3.4169507026672363,2.636890411376953,0.2272351831197738,0.2687727808952331,0.1893626451492309,#
8.087740898132324,-3.3403804302215576,2.7086753845214844,0.1661504507064819,0.3249707520008087,0.2528907656669616,#
7.886743545532227,-3.2231321334838867,2.577069997787476,0.1185043603181839,0.3542913794517517,0.3042019307613373,#
7.836494445800781,-3.1130621433258057,2.469392776489258,0.1026223376393318,0.3640649616718292,0.3310791850090027,#
7.836494445800781,-3.1130621433258057,2.469392776489258,0.0952921733260154,0.3823903799057007,0.365286648273468,#
8.054241180419922,-3.148954391479492,2.5292134284973145,0.1026223376393318,0.393385648727417,0.3762818872928619,#
8.169095993041992,-3.13938307762146,2.577069997787476,0.1478250324726104,0.4153760969638824,0.3750602006912231,#
8.166703224182129,-3.1441688537597656,2.522034883499145,0.2394521236419677,0.448361873626709,0.3591781854629516,#
8.063812255859375,-3.058027505874634,2.553141593933105,0.2858764827251434,0.4642439186573028,0.3481829464435577,#
8.061419486999512,-3.2159535884857178,2.675175428390503,0.3591781854629516,0.4874561131000519,0.3359659910202026,#
8.061419486999512,-3.2159535884857178,2.675175428390503,0.4068242609500885,0.494786262512207,0.3176405727863312,#
8.322237014770508,-3.31166672706604,2.799602746963501,0.4251496791839599,0.4837909936904907,0.2980934381484985,#
8.563912391662598,-3.3068809509277344,3.421736478805542,0.4556920528411865,0.471574068069458,0.2907632887363434,#
9.159724235534668,-3.5581274032592773,3.8979082107543945,0.4801259338855743,0.4618005454540252,0.2773246467113495,#
9.68375301361084,-3.4672000408172607,4.273581027984619,0.5913001298904419,0.4324798583984375,0.2199050188064575,#
9.68375301361084,-3.4672000408172607,4.273581027984619,0.7330166697502136,0.4300364553928375,0.1466033309698104,#
9.96131992340088,-3.7663028240203857,4.436293125152588,0.8087617754936218,0.4471401870250702,0.1014006435871124,#
10.047462463378906,-3.780659914016724,5.034498691558838,0.896723747253418,0.4923428893089294,0.0452026948332786,#
10.37767219543457,-4.015156269073486,6.262016773223877,0.9333745837211608,0.5351021885871887,0.0684148892760276,#
10.746166229248049,-4.127618789672852,7.003791332244873,0.9455915093421936,0.5277720093727112,0.1038440242409706,#
10.746166229248049,-4.127618789672852,7.003791332244873,0.9003888368606567,0.5131116509437561,0.21135313808918,#
11.241480827331545,-3.778266668319702,8.391629219055176,0.896723747253418,0.5729747414588928,0.2944283783435821,#
11.296515464782717,-3.900300979614258,9.384650230407717,0.9162708520889282,0.620620846748352,0.3286358118057251,#
11.626726150512695,-4.503292083740234,11.243873596191406,1.0066763162612915,0.7183563709259033,0.3811686933040619,#
12.105289459228516,-4.8574299812316895,12.490534782409668,1.0714260339736938,0.7831061482429504,0.3836120665073395,#
12.222538948059082,-4.455435752868652,13.196417808532717,1.240019917488098,0.8759549260139465,0.4141544103622436,#
12.222538948059082,-4.455435752868652,13.196417808532717,1.3487507104873655,1.0372185707092283,0.4593571126461029,#
12.701102256774902,-3.9792640209198,13.105490684509276,1.313321590423584,1.1447278261184692,0.5155550837516785,#
13.471590995788574,-4.161118507385254,13.165310859680176,1.1215155124664309,1.586981177330017,0.712247908115387,#
13.648659706115724,-5.544170379638672,14.617753982543944,0.6792621612548828,2.1648426055908203,0.8612945675849915,#
13.785051345825195,-6.455835819244385,15.66102409362793,0.5008947253227234,2.444610834121704,0.9443698525428772,#
13.785051345825195,-6.455835819244385,15.66102409362793,0.4178195297718048,2.895415782928467,1.1312891244888306,#
13.060026168823242,-6.812366485595703,15.687345504760742,0.5143333673477173,3.1373112201690674,1.240019917488098,#
13.241880416870115,-7.28375244140625,14.371292114257812,0.8820634484291077,3.5392487049102783,1.429382562637329,#
13.605589866638184,-7.434500217437744,13.079168319702148,1.1349540948867798,3.86544132232666,1.4868022203445437,#
12.698708534240724,-6.884150981903076,12.162715911865234,1.2143642902374268,4.053582191467285,1.5112361907958984,#
12.502498626708984,-6.917649745941162,10.628917694091797,1.494132399559021,4.514161109924316,1.5515520572662354,#
12.502498626708984,-6.917649745941162,10.628917694091797,2.090319395065308,4.896551609039307,1.4892456531524658,#
11.30130100250244,-5.441278457641602,7.637890338897705,2.431172132492065,5.114012718200684,1.4550381898880005,#
9.214759826660156,-3.404986619949341,5.221138954162598,2.9491703510284424,5.705313205718994,1.4208307266235352,#
7.034898281097412,-2.062613010406494,2.895315170288086,3.231381893157959,6.197656154632568,1.3316470384597778,#
5.168497085571289,-0.8566305041313171,1.4715858697891235,3.316900491714477,6.378467082977295,1.2424633502960205,#
5.168497085571289,-0.8566305041313171,1.4715858697891235,3.3217873573303223,6.609367370605469,1.1435059309005735,#
3.948157548904419,0.138783723115921,0.5982056856155396,3.261924266815185,6.642353057861328,1.054322361946106,#
3.0005996227264404,0.3637090623378753,0.0311066936701536,3.104325532913208,6.6435747146606445,0.9211575984954834,#
1.9262222051620483,0.7776673436164856,-0.6005984544754028,2.8196709156036377,6.582489967346191,0.8209787011146545,#
0.9810572862625122,0.6101697683334351,-1.117448091506958,2.673067569732666,6.505523204803467,0.7281299233436584,#
-0.0837487876415252,1.0456634759902954,-1.131805181503296,2.4800398349761963,6.219646453857422,0.5986303091049194,#
-0.0837487876415252,1.0456634759902954,-1.131805181503296,2.2344791889190674,5.840921401977539,0.53143709897995,#
-0.6819544434547424,1.8855443000793457,-1.8233308792114256,2.104979515075684,5.679657459259033,0.5143333673477173,#
-1.3854442834854126,1.9956141710281368,-2.289931058883667,1.6810516119003296,5.520837306976318,0.4349232316017151,#
-1.6247265338897705,1.5960125923156738,-2.431107759475708,1.3194299936294556,5.032159328460693,0.5070031881332397,#
-2.746960401535034,1.8544375896453855,-3.4193434715271,1.1997039318084717,4.7975945472717285,0.4569137394428253,#
-2.746960401535034,1.8544375896453855,-3.4193434715271,1.109298586845398,4.400543689727783,0.3323009014129638,#
-3.653840303421021,2.5076780319213867,-4.4004011154174805,1.0469921827316284,4.075572967529297,0.2944283783435821,#
-4.60857629776001,3.1896328926086426,-5.704488754272461,0.6988092660903931,3.453730344772339,0.1502684205770492,down
-5.515456199645996,3.744767427444458,-7.190432548522949,0.2834331095218658,2.8050105571746826,0.003665083553642,down
-5.769095420837402,3.4025940895080566,-7.58524751663208,0.0586413368582725,2.5875487327575684,-0.0806318372488021,down
-5.769095420837402,3.4025940895080566,-7.58524751663208,-0.411711037158966,1.9412726163864136,-0.2321219593286514,down
-5.61834716796875,2.4191436767578125,-7.135397434234619,-0.7110261917114258,1.2522368431091309,-0.4312581717967987,down
-5.491527557373047,1.7204395532608032,-7.037291049957275,-0.7769976854324341,0.9736905097961426,-0.5241069197654724,down
-5.051248073577881,1.648654818534851,-7.422535419464111,-0.8283088207244873,0.416597843170166,-0.7012526392936707,down
-4.065405368804932,1.2299107313156128,-8.011170387268066,-0.8747332096099854,0.152711808681488,-0.7989881634712219,down
-2.7014968395233154,0.0981057211756706,-8.772088050842285,-1.1288456916809082,-0.4153760969638824,-1.0066763162612915,down
-2.7014968395233154,0.0981057211756706,-8.772088050842285,-1.4868022203445437,-1.022558331489563,-1.1838220357894895,down
-0.5982056856155396,-1.1509476900100708,-10.884950637817385,-1.6578394174575806,-1.3108781576156616,-1.244906663894653,down
2.6703903675079346,-2.4646072387695312,-15.081961631774902,-2.117196559906006,-1.955932855606079,-1.3658545017242432,down
9.901500701904297,-4.900500774383545,-20.073389053344727,-2.553341627120972,-2.886864185333252,-1.4477078914642334,down
16.015161514282227,-5.199604034423828,-22.655244827270508,-2.704831600189209,-3.4415132999420166,-1.446486234664917,down
16.015161514282227,-5.199604034423828,-22.655244827270508,-3.00536847114563,-5.032159328460693,-1.3646327257156372,down
23.794227600097656,-4.59421968460083,-22.832313537597656,-3.417079448699951,-6.661900043487549,-1.189930438995361,down
27.60838508605957,-4.945964336395264,-21.06880187988281,-3.873993158340454,-10.394176483154297,-1.3621894121170044,down
33.722049713134766,-5.209175109863281,-19.00140380859375,-2.7927937507629395,-14.029939651489258,-1.705485463142395,down
46.76293563842773,-11.590832710266112,-13.718052864074709,-2.2466959953308105,-15.721986770629885,-1.8447586297988887,down
54.34339141845703,-8.616554260253906,-0.2895315289497375,-1.6932685375213623,-18.38528060913086,-2.266243457794189,down
54.34339141845703,-8.616554260253906,-0.2895315289497375,-0.9907942414283752,-19.227027893066406,-2.150182247161865,down
55.96572494506836,-7.865207672119141,6.891329765319824,-0.6646018028259277,-18.64061546325684,-1.645622491836548,down
60.23213195800781,-10.200602531433104,21.650259017944336,-1.290109395980835,-15.91623592376709,-1.066539287567139,down
53.00580596923828,-10.03549861907959,31.037303924560547,-1.6431790590286257,-11.971384048461914,-0.7195780277252197,down
40.92683792114258,-4.993820667266846,28.62294578552246,-1.7372496128082275,-9.807764053344728,-0.5754181146621704,down
40.92683792114258,-4.993820667266846,28.62294578552246,-1.572320818901062,-5.761510848999023,-0.3396310806274414,down
31.10430145263672,-2.7278177738189697,22.13600349426269,-1.7396929264068604,-4.227062702178955,-0.1673721522092819,down
25.787450790405277,-5.190032482147217,21.298513412475582,-2.71094012260437,-2.279681921005249,0.4251496791839599,down
23.066808700561523,-5.146961212158203,20.260028839111328,-3.1397547721862797,-1.6639479398727417,0.9736905097961426,down
19.18804359436035,-3.359522819519043,15.96730613708496,-2.9345102310180664,-1.5552170276641846,0.9529216885566713,down
15.306886672973633,-1.581655740737915,12.918848991394045,-1.9632630348205569,-1.2693406343460083,0.7525637745857239,down
15.306886672973633,-1.581655740737915,12.918848991394045,-0.9553651213645936,-0.707361102104187,0.5925218462944031,down
11.71286678314209,-1.4644075632095337,11.186446189880373,-0.5986303091049194,-0.3616215586662292,0.5534276366233826,down
10.671989440917969,-1.4835500717163086,9.602396965026855,-0.0781884491443634,0.1856975704431533,0.4239279925823211,down
9.913464546203612,-1.146162033081055,8.130810737609863,0.155155211687088,0.3775035738945007,0.3347443044185638,#
9.53779125213623,-0.7752745151519775,6.5180487632751465,0.5118899941444397,0.6951441764831543,0.1649287492036819,#
9.53779125213623,-0.7752745151519775,6.5180487632751465,0.5815265774726868,0.8026533126831055,0.0549762547016143,#
9.336793899536133,-0.9379864931106568,4.969892501831055,0.4972296357154846,0.8258654475212097,0.0012216945178806,#
9.17886734008789,-1.1198409795761108,4.027120590209961,0.1747023165225982,0.8441908955574036,-0.1343863904476165,#
8.69791030883789,-1.37587308883667,2.6009981632232666,-0.2528907656669616,0.8612945675849915,-0.2748812437057495,#
8.264809608459473,-1.9716858863830569,1.6654045581817627,-0.4801259338855743,0.860072910785675,-0.3310791850090027,#
8.264809608459473,-1.9716858863830569,1.6654045581817627,-0.8893935680389404,0.8722898364067078,-0.448361873626709,#
8.073383331298828,-2.273181438446045,1.146162033081055,-1.1276240348815918,0.8539644479751587,-0.5595360994338989,#
8.264809608459473,-2.366501569747925,0.9332008361816406,-1.1813786029815674,0.836860716342926,-0.6157339811325073,#
8.214560508728027,-2.1104695796966557,0.7752745151519775,-1.2840008735656738,0.7928797006607056,-0.7036960124969482,#
8.587841033935547,-2.076970100402832,0.2249253392219543,-1.3414205312728882,0.758672297000885,-0.7220214009284973,#
8.824729919433594,-2.227717876434326,0.0430708117783069,-1.446486234664917,0.6902573704719543,-0.7598939538002014,#
8.824729919433594,-2.227717876434326,0.0430708117783069,-1.6358489990234375,0.6450546979904175,-0.8441908955574036,#
9.379864692687988,-2.1200408935546875,-0.0526420958340168,-1.718924045562744,0.605960488319397,-0.833195686340332,#
9.595218658447266,-2.4358932971954346,0.1124626696109771,-1.9205037355422971,0.5351021885871887,-0.8612945675849915,#
9.619147300720217,-2.68953275680542,0.1268195956945419,-2.05366849899292,0.4556920528411865,-0.8539644479751587,#
9.80817985534668,-2.7038896083831787,0.1316052377223968,-2.0695505142211914,0.4251496791839599,-0.8576295375823975,#
9.80817985534668,-2.7038896083831787,0.1316052377223968,-2.059777021408081,0.3323009014129638,-0.8417474627494812,#
9.81535816192627,-2.902493953704834,0.0981057211756706,-2.051224946975708,0.2797680497169494,-0.836860716342926,#
9.846465110778809,-2.971885919570923,0.2177468687295913,-1.9999139308929443,0.152711808681488,-0.8356390595436096,#
9.781858444213867,-3.115455150604248,0.5694918036460876,-1.8887397050857544,0.003665083553642,-0.84541255235672,#
9.66939640045166,-3.2853453159332275,0.916451096534729,-1.815437912940979,-0.0720799788832664,-0.8478559851646423,#
9.602396965026855,-3.2039895057678223,1.1533405780792236,-1.572320818901062,-0.2431172132492065,-0.8686248064041138,#
9.602396965026855,-3.2039895057678223,1.1533405780792236,-1.2876659631729126,-0.4031591713428497,-0.8832851052284241,#
9.561718940734863,-3.201596736907959,1.34476637840271,-1.147171139717102,-0.4837909936904907,-0.8881718516349792,#
9.667003631591797,-3.062812805175781,1.5912269353866575,-0.8747332096099854,-0.6267292499542236,-0.8906152844429016,#
9.80100154876709,-2.950350284576416,1.7324036359786987,-0.6303943395614624,-0.7403469085693359,-0.8698464632034302,#
9.743573188781738,-2.7661027908325195,1.969292998313904,-0.5302154421806335,-0.7916580438613892,-0.8478559851646423,#
9.743573188781738,-2.7661027908325195,1.969292998313904,-0.388498842716217,-0.860072910785675,-0.7818844318389893,#
9.944571495056152,-2.7732813358306885,1.94297194480896,-0.3457395434379577,-0.8771765828132629,-0.7488986849784851,#
10.22931671142578,-2.785245418548584,1.9118653535842896,-0.2431172132492065,-0.8441908955574036,-0.7110261917114258,#
10.372885704040527,-2.562713146209717,1.804188132286072,-0.0977355539798736,-0.7611156702041626,-0.63283771276474,#
10.360921859741213,-2.3401806354522705,1.5649060010910034,-0.0390942245721817,-0.6975875496864319,-0.5937435030937195,#
10.571491241455078,-2.2157537937164307,1.5122638940811155,0.0061084721237421,-0.5448757410049438,-0.5192201733589172,#
10.571491241455078,-2.2157537937164307,1.5122638940811155,-0.0171037223190069,-0.3713951408863067,-0.4544703662395477,#
10.626524925231934,-2.1128623485565186,1.490728497505188,-0.0452026948332786,-0.2895416021347046,-0.4068242609500885,#
10.454241752624512,-2.09850549697876,1.4931212663650513,-0.1429382413625717,-0.1246128380298614,-0.3213056325912475,#
10.236495971679688,-2.139183282852173,1.5720844268798828,-0.2015795856714248,-0.0476460866630077,-0.2846547961235046,#
10.157532691955566,-2.050648927688598,1.660618782043457,-0.282211422920227,0.0830752253532409,-0.2150182276964187,#
10.157532691955566,-2.050648927688598,1.660618782043457,-0.3286358118057251,0.1795890927314758,-0.1417165547609329,#
10.009177207946776,-1.9716858863830569,1.526620864868164,-0.342074453830719,0.2247917801141739,-0.1075091138482093,#
9.82971477508545,-1.813759446144104,1.3782659769058228,-0.3640649616718292,0.3078669905662536,-0.0452026948332786,#
9.882357597351074,-1.813759446144104,1.275374412536621,-0.3811686933040619,0.3738385140895843,-0.007330167107284,#
9.980463027954102,-1.7180466651916504,1.1940184831619265,-0.388498842716217,0.3994940817356109,0.0024433890357613,#
9.980463027954102,-1.7180466651916504,1.1940184831619265,-0.4129327237606048,0.4471401870250702,0.0146603342145681,#
10.028319358825684,-1.7682960033416748,1.2538390159606934,-0.4239279925823211,0.4740174412727356,0.0219905003905296,#
10.028319358825684,-1.7371891736984253,1.093519926071167,-0.4202629029750824,0.4813476204872131,0.0244338884949684,#
10.013962745666504,-1.674975872039795,1.0145567655563354,-0.4153760969638824,0.4825693070888519,0.0342074446380138,#
10.054640769958496,-1.6271194219589231,0.9523434042930604,-0.4141544103622436,0.4740174412727356,0.0390942245721817,#
9.968499183654783,-1.6965112686157229,1.0911270380020142,-0.4031591713428497,0.4532486498355865,0.0415376126766204,#
9.968499183654783,-1.6965112686157229,1.0911270380020142,-0.3799469769001007,0.4190412163734436,0.0488677769899368,#
9.63828945159912,-1.8065810203552248,1.308874011039734,-0.3616215586662292,0.3958290219306946,0.0610847249627113,#
9.489934921264648,-1.7515461444854736,1.3854442834854126,-0.3115321099758148,0.3396310806274414,0.1062874197959899,#
9.269794464111328,-1.5936198234558103,1.3998013734817505,-0.2431172132492065,0.2944283783435821,0.1673721522092819,#
9.207581520080566,-1.459621787071228,1.430907964706421,-0.2125748395919799,0.2797680497169494,0.2040229737758636,#
9.207581520080566,-1.459621787071228,1.430907964706421,-0.1478250324726104,0.2699944972991943,0.2712161839008331,#
9.087940216064451,-1.2538390159606934,1.4093725681304932,-0.1197260618209838,0.2761029601097107,0.3042019307613373,#
9.06879711151123,-1.160519003868103,1.4069796800613403,-0.0916270837187767,0.3042019307613373,0.365286648273468,#
8.989834785461426,-0.916451096534729,1.4883356094360352,-0.0769667476415634,0.3408527672290802,0.4031591713428497,#
8.994620323181152,-0.696311354637146,1.3854442834854126,-0.0745233595371246,0.3567348122596741,0.4129327237606048,#
9.190832138061523,-0.5814558863639832,1.2083754539489746,-0.0977355539798736,0.3787252902984619,0.4129327237606048,#
9.190832138061523,-0.5814558863639832,1.2083754539489746,-0.1624853760004043,0.3787252902984619,0.3848337531089782,#
9.446864128112791,-0.519242525100708,1.1653046607971191,-0.2040229737758636,0.3738385140895843,0.3628432750701904,#
9.719645500183104,-0.607776939868927,1.1341978311538696,-0.282211422920227,0.3518480062484741,0.2993151545524597,#
9.736394882202148,-0.6867401003837585,1.284945726394653,-0.3408527672290802,0.310310423374176,0.235787034034729,#
9.798608779907228,-0.5144568681716919,1.6510475873947144,-0.3469612300395965,0.2846547961235046,0.2089097648859024,#
9.798608779907228,-0.5144568681716919,1.6510475873947144,-0.3408527672290802,0.2015795856714248,0.1820324808359146,#
9.77946662902832,-0.3924228847026825,1.8975083827972408,-0.31641885638237,0.1514901220798492,0.1771456897258758,#
9.614361763000488,-0.3924228847026825,1.8999011516571045,-0.2699944972991943,0.0818535313010215,0.1771456897258758,#
9.38943576812744,-0.2536391913890838,1.852044701576233,-0.2174616158008575,0.0659715011715889,0.1734806150197982,#
9.387042999267578,-0.1818545311689376,2.031506299972534,-0.1795890927314758,0.0794101431965828,0.1698155403137207,#
9.554540634155272,0.1076770275831222,2.048256158828736,-0.0916270837187767,0.123391143977642,0.152711808681488,#
9.554540634155272,0.1076770275831222,2.048256158828736,0.0109952501952648,0.155155211687088,0.130721315741539,#
9.57607650756836,0.2416750937700271,2.2779672145843506,0.0561979450285434,0.1514901220798492,0.1075091138482093,#
9.63828945159912,0.5479563474655151,2.4717857837677,0.1221694499254226,0.1185043603181839,0.0561979450285434,#
9.607183456420898,0.6604190468788147,2.6464619636535645,0.1356080919504165,0.0452026948332786,-0.0171037223190069,#
9.657432556152344,0.7082754969596863,2.7349963188171387,0.128277912735939,0.0452026948332786,-0.0586413368582725,#
9.657432556152344,0.7082754969596863,2.7349963188171387,0.0916270837187767,-0.1123958900570869,-0.1258345395326614,#
9.487542152404783,0.6101697683334351,2.943171739578247,0.0635281130671501,-0.1649287492036819,-0.1539334952831268,#
9.32004451751709,0.4115655124187469,2.8977081775665283,0.0452026948332786,-0.2406738102436065,-0.2052446752786636,#
8.918049812316895,0.1603191047906875,2.667997360229492,0.0855186134576797,-0.2712161839008331,-0.2516690790653229,#
8.645268440246582,0.0598205626010894,2.4598214626312256,0.1221694499254226,-0.2638860046863556,-0.2748812437057495,#
8.645268440246582,0.0598205626010894,2.4598214626312256,0.1905843466520309,-0.2345653474330902,-0.31641885638237,#
8.489734649658203,0.0047856452874839,2.538784980773926,0.2089097648859024,-0.2150182276964187,-0.3591781854629516,#
8.2695951461792,0.0215354058891534,2.644068956375122,0.2101314514875412,-0.2137965410947799,-0.3811686933040619,#
8.391629219055176,-0.0071784676983952,2.864208698272705,0.1429382413625717,-0.2345653474330902,-0.4263713657855987,#
8.484949111938477,0.0454636327922344,2.957528829574585,0.0830752253532409,-0.2528907656669616,-0.448361873626709,#
8.525627136230469,-0.2943171858787536,2.622533798217773,-0.0598630309104919,-0.2993151545524597,-0.4874561131000519,#
8.525627136230469,-0.2943171858787536,2.622533798217773,-0.2418954968452453,-0.3090887069702148,-0.5204418301582336,#
8.707481384277344,-0.6843472719192505,2.4502503871917725,-0.3274141252040863,-0.3017585575580597,-0.5326588153839111,#
8.872586250305176,-1.107876896858215,2.526820659637451,-0.4642439186573028,-0.261442631483078,-0.5583143830299377,#
9.04726219177246,-1.3471590280532837,2.483749866485596,-0.5045598149299622,-0.2125748395919799,-0.5485408306121826,#
9.343972206115724,-1.6223337650299072,2.455036163330078,-0.4935645759105682,-0.2015795856714248,-0.52655029296875,#
9.343972206115724,-1.6223337650299072,2.455036163330078,-0.4471401870250702,-0.1893626451492309,-0.4654656052589416,#
9.59043312072754,-1.6295121908187866,2.313859462738037,-0.4129327237606048,-0.1844758540391922,-0.4288147687911987,#
9.705288887023926,-1.6654045581817627,2.2947168350219727,-0.3323009014129638,-0.1710372269153595,-0.3347443044185638,#
9.796216011047363,-1.730010747909546,2.234896183013916,-0.2687727808952331,-0.1490467190742492,-0.2125748395919799,#
9.91107177734375,-1.710868239402771,2.3234307765960693,-0.2418954968452453,-0.1368297785520553,-0.1539334952831268,#
9.93260669708252,-1.7132610082626345,2.2755744457244877,-0.1832541674375534,-0.1148392781615257,-0.0476460866630077,#
9.93260669708252,-1.7132610082626345,2.2755744457244877,-0.1270562261343002,-0.0708582773804664,0.0757450610399246,#
9.870393753051758,-1.6031911373138428,2.1750757694244385,-0.1038440242409706,-0.0464243926107883,0.130721315741539,#
10.037891387939451,-1.5050854682922363,2.0171494483947754,-0.0635281130671501,0.0109952501952648,0.2370087206363678,#
10.188638687133787,-1.3710873126983645,2.03629207611084,-0.0378725305199623,0.0769667476415634,0.3298574984073639,#
10.080962181091309,-1.294516921043396,1.931007981300354,-0.0305423624813556,0.1062874197959899,0.3701734542846679,#
10.080962181091309,-1.294516921043396,1.931007981300354,-0.0329857505857944,0.1539334952831268,0.4495835602283478,#
10.088139533996582,-1.2729815244674685,1.871187210083008,-0.0354291386902332,0.1698155403137207,0.4874561131000519,#
9.934999465942385,-1.275374412536621,1.7204395532608032,-0.0354291386902332,0.1930277347564697,0.5570926666259766,#
9.879963874816896,-1.22033953666687,1.674975872039795,-0.0146603342145681,0.2101314514875412,0.6193991303443909,#
9.736394882202148,-1.0719845294952393,1.5649060010910034,0.0024433890357613,0.2137965410947799,0.6499415040016174,#
9.91585636138916,-0.9116654396057128,1.5481561422348022,0.0464243926107883,0.2174616158008575,0.7012526392936707,#
9.91585636138916,-0.9116654396057128,1.5481561422348022,0.0940704718232154,0.2089097648859024,0.7317950129508972,#
9.839285850524902,-0.7489535212516785,1.5649060010910034,0.1221694499254226,0.2028012871742248,0.7330166697502136,#
9.76989459991455,-0.6556334495544434,1.5720844268798828,0.1466033309698104,0.1795890927314758,0.7220214009284973,#
9.602396965026855,-0.6604190468788147,1.5074783563613892,0.155155211687088,0.1673721522092819,0.712247908115387,#
9.339186668395996,-0.5862415432929993,1.529013752937317,0.1563768982887268,0.1356080919504165,0.680483877658844,#
9.339186668395996,-0.5862415432929993,1.529013752937317,0.1502684205770492,0.0989572554826736,0.6316159963607788,#
9.15733242034912,-0.7034898400306702,1.519442439079285,0.1466033309698104,0.0794101431965828,0.5998519659042358,#
9.008977890014648,-0.8159525394439697,1.557727575302124,0.1514901220798492,0.0354291386902332,0.5302154421806335,#
8.843873023986816,-1.0145567655563354,1.6271194219589231,0.1844758540391922,-0.0195471122860908,0.4471401870250702,#
8.800802230834961,-1.1222338676452637,1.557727575302124,0.21135313808918,-0.0513111688196659,0.4068242609500885,#
8.800802230834961,-1.1222338676452637,1.557727575302124,0.2724378705024719,-0.1136175915598869,0.3274141252040863,#
8.827122688293457,-1.3304094076156616,1.5170495510101318,0.2980934381484985,-0.1417165547609329,0.2895416021347046,#
8.874979019165039,-1.4883356094360352,1.4189438819885254,0.3371876776218414,-0.1856975704431533,0.2174616158008575,#
8.9371919631958,-1.6223337650299072,1.442872166633606,0.3579564988613128,-0.2247917801141739,0.1588202863931656,#
9.035298347473145,-1.6534404754638672,1.5242280960083008,0.3555130958557129,-0.2443388998508453,0.1356080919504165,#
9.279366493225098,-1.9238293170928955,1.526620864868164,0.3469612300395965,-0.2919849753379822,0.0940704718232154,#
9.279366493225098,-1.9238293170928955,1.526620864868164,0.3432961404323578,-0.3298574984073639,0.0610847249627113,#
9.286543846130373,-2.053041696548462,1.4548362493515017,0.342074453830719,-0.3432961404323578,0.0500894747674465,#
9.250652313232422,-2.139183282852173,1.4165509939193726,0.3457395434379577,-0.3603998720645904,0.0354291386902332,#
9.219545364379885,-2.203789472579956,1.3902300596237185,0.3555130958557129,-0.3738385140895843,0.0293206684291362,#
9.23390293121338,-2.167897224426269,1.3351951837539673,0.3640649616718292,-0.3787252902984619,0.0293206684291362,#
9.23390293121338,-2.167897224426269,1.3351951837539673,0.3823903799057007,-0.388498842716217,0.0329857505857944,#
9.40379238128662,-2.263610363006592,1.2251251935958862,0.3958290219306946,-0.3970507085323334,0.0329857505857944,#
9.506684303283691,-2.225324869155884,1.1724830865859983,0.4190412163734436,-0.4068242609500885,0.0268772784620523,#
9.425328254699709,-2.117647886276245,1.0863415002822876,0.4263713657855987,-0.4141544103622436,0.0158820282667875,#
9.413363456726074,-2.0865414142608643,0.9882357716560364,0.4178195297718048,-0.4214845895767212,0.0024433890357613,#
9.647860527038574,-2.100898265838623,1.0001999139785769,0.3738385140895843,-0.445918470621109,-0.031764056533575,#
9.647860527038574,-2.100898265838623,1.0001999139785769,0.2993151545524597,-0.4789042472839355,-0.0855186134576797,#
9.812965393066406,-2.2851457595825195,1.129412293434143,0.2541124522686004,-0.4984513521194458,-0.1221694499254226,#
9.92542839050293,-2.368894338607788,1.2227323055267334,0.1844758540391922,-0.5424323678016663,-0.2052446752786636,#
9.923035621643066,-2.5866410732269287,1.2299107313156128,0.1343863904476165,-0.5693095922470093,-0.2736595571041107,#
9.875179290771484,-2.711068153381348,1.124626636505127,0.1136175915598869,-0.574196457862854,-0.3017585575580597,#
9.875179290771484,-2.711068153381348,1.124626636505127,0.0781884491443634,-0.5619794726371765,-0.3371876776218414,#
9.757929801940918,-2.770888566970825,1.191625714302063,0.0549762547016143,-0.549762487411499,-0.3445178270339966,#
9.69093132019043,-2.8737800121307373,1.1892328262329102,0.007330167107284,-0.5216635465621948,-0.3408527672290802,#
9.724431037902832,-2.8833510875701904,1.2251251935958862,-0.0293206684291362,-0.4972296357154846,-0.3151971697807312,#
9.803394317626951,-2.9790639877319336,1.1485549211502075,-0.0415376126766204,-0.4850127100944519,-0.2956500649452209,#
9.803394317626951,-2.9790639877319336,1.1485549211502075,-0.0415376126766204,-0.4508052766323089,-0.2528907656669616,#
9.705288887023926,-3.0269205570220947,1.2251251935958862,-0.0219905003905296,-0.4043808877468109,-0.2064663618803024,#
9.77946662902832,-2.864208698272705,1.215553879737854,-0.0109952501952648,-0.3750602006912231,-0.1820324808359146,#
9.863215446472168,-2.7732813358306885,1.160519003868103,0.007330167107284,-0.3066453039646148,-0.1331647038459777,#
10.009177207946776,-2.699103832244873,1.093519926071167,0.0122169442474842,-0.2699944972991943,-0.1087308079004287,#
10.286745071411133,-2.6249265670776367,1.117448091506958,0.0012216945178806,-0.1918060332536697,-0.0671931952238082,#
10.286745071411133,-2.6249265670776367,1.117448091506958,-0.031764056533575,-0.1111741960048675,-0.0366508327424526,#
10.466205596923828,-2.610569477081299,1.0145567655563354,-0.0513111688196659,-0.069636583328247,-0.0232121963053941,#
10.609774589538574,-2.596212387084961,0.8781659603118896,-0.1062874197959899,0.0195471122860908,0.0122169442474842,#
10.573883056640623,-2.63449764251709,0.787238597869873,-0.175924003124237,0.1026223376393318,0.0549762547016143,#
10.53081226348877,-2.691925525665283,0.7274181246757507,-0.2064663618803024,0.1429382413625717,0.0806318372488021,#
10.53081226348877,-2.691925525665283,0.7274181246757507,-0.2480039745569229,0.2137965410947799,0.1392731666564941,#
10.195816040039062,-2.63449764251709,0.763310432434082,-0.2553341388702392,0.2687727808952331,0.199136197566986,#
10.210174560546877,-2.57228422164917,0.7441678047180176,-0.2443388998508453,0.2907632887363434,0.2247917801141739,#
10.066605567932127,-2.3569302558898926,0.7226324081420898,-0.2089097648859024,0.3237490355968475,0.2638860046863556,#
9.913464546203612,-2.2229323387146,0.6939185857772827,-0.1893626451492309,0.3359659910202026,0.2773246467113495,#
9.731609344482422,-2.117647886276245,0.7154539823532104,-0.1673721522092819,0.3542913794517517,0.2895416021347046,#
9.731609344482422,-2.117647886276245,0.7154539823532104,-0.1612636744976043,0.3640649616718292,0.287098228931427,#
9.621540069580078,-2.1200408935546875,0.6747759580612183,-0.1600419729948043,0.365286648273468,0.282211422920227,#
9.595218658447266,-2.038684844970703,0.6699903011322021,-0.1563768982887268,0.3689517080783844,0.2577775418758392,#
9.492327690124512,-2.060220241546631,0.6436693072319031,-0.1380514800548553,0.3701734542846679,0.2150182276964187,#
9.4660062789917,-1.9740787744522093,0.6771688461303711,-0.1258345395326614,0.3689517080783844,0.1869192570447921,#
9.4660062789917,-1.9740787744522093,0.6771688461303711,-0.0916270837187767,0.3628432750701904,0.128277912735939,#
9.422935485839844,-1.9740787744522093,0.7202396392822266,-0.0733016654849052,0.3555130958557129,0.100178949534893,#
9.391828536987305,-2.0243279933929443,0.5551348924636841,-0.0525328628718853,0.3408527672290802,0.0488677769899368,#
9.430113792419434,-2.050648927688598,0.5335994362831116,-0.0476460866630077,0.3225273489952087,0.003665083553642,#
9.422935485839844,-2.053041696548462,0.5623133182525635,-0.0537545569241046,0.3127537965774536,-0.0171037223190069,#
9.370293617248535,-2.091326951980591,0.5910272002220154,-0.0769667476415634,0.287098228931427,-0.0586413368582725,#
9.370293617248535,-2.091326951980591,0.5910272002220154,-0.0989572554826736,0.2492256760597229,-0.0940704718232154,#
9.394222259521484,-2.2683956623077397,0.6125625967979431,-0.1075091138482093,0.2272351831197738,-0.1148392781615257,#
9.422935485839844,-2.2779672145843506,0.6747759580612183,-0.1197260618209838,0.1832541674375534,-0.1588202863931656,#
9.506684303283691,-2.1990041732788086,0.7824530005455017,-0.123391143977642,0.1588202863931656,-0.1820324808359146,#
9.485149383544922,-2.3306093215942383,0.8805587291717529,-0.129499614238739,0.1050657257437706,-0.2150182276964187,#
9.485149383544922,-2.3306093215942383,0.8805587291717529,-0.1698155403137207,0.0610847249627113,-0.2309002727270126,#
9.375079154968262,-2.3617160320281982,0.97148597240448,-0.1942494213581085,0.0464243926107883,-0.2284568697214126,#
9.255437850952148,-2.502892255783081,1.1988041400909424,-0.2174616158008575,0.0354291386902332,-0.2125748395919799,#
9.083154678344728,-2.5196423530578613,1.3280165195465088,-0.199136197566986,0.0256555844098329,-0.178367406129837,#
9.020941734313965,-2.53399920463562,1.356730580329895,-0.175924003124237,0.0183254163712263,-0.1575985848903656,#
9.020941734313965,-2.53399920463562,1.356730580329895,-0.1026223376393318,0.0012216945178806,-0.1099525094032287,#
9.052047729492188,-2.4358932971954346,1.4500504732131958,-0.0097735561430454,-0.0109952501952648,-0.0684148892760276,#
9.198010444641112,-2.244467735290528,1.550549030303955,0.0354291386902332,-0.0158820282667875,-0.0525328628718853,#
9.229117393493652,-2.0817556381225586,1.4787644147872925,0.0989572554826736,-0.0171037223190069,-0.0280989725142717,#
9.322437286376951,-1.9956141710281368,1.495514154434204,0.1160609796643257,-0.0134386392310261,-0.0195471122860908,#
9.372685432434082,-1.935793399810791,1.4859429597854614,0.1246128380298614,0.0012216945178806,-0.0085518611595034,#
9.372685432434082,-1.935793399810791,1.4859429597854614,0.1160609796643257,0.0207688063383102,-0.0012216945178806,#
9.51386260986328,-1.950150489807129,1.4548362493515017,0.1087308079004287,0.0280989725142717,0.0024433890357613,#
9.640682220458984,-1.7994027137756348,1.442872166633606,0.0916270837187767,0.0366508327424526,0.0085518611595034,#
9.707681655883787,-1.9118653535842896,1.2729815244674685,0.0671931952238082,0.0342074446380138,0.0183254163712263,#
9.743573188781738,-1.835294842720032,1.2873386144638062,0.0610847249627113,0.0354291386902332,0.0268772784620523,#
9.743573188781738,-1.835294842720032,1.2873386144638062,0.0537545569241046,0.0366508327424526,0.0452026948332786,#
9.841679573059082,-1.8400806188583372,1.2729815244674685,0.0488677769899368,0.0366508327424526,0.0549762547016143,#
9.724431037902832,-1.7156537771224976,1.3328022956848145,0.0513111688196659,0.0354291386902332,0.0757450610399246,#
9.63828945159912,-1.6007983684539795,1.3016955852508545,0.0598630309104919,0.0280989725142717,0.0977355539798736,#
9.4660062789917,-1.6151552200317385,1.34476637840271,0.0623064190149307,0.0268772784620523,0.1123958900570869,#
9.336793899536133,-1.4380863904953003,1.37587308883667,0.0537545569241046,0.0293206684291362,0.1417165547609329,#
9.336793899536133,-1.4380863904953003,1.37587308883667,0.0427593067288398,0.0342074446380138,0.1637070626020431,#
9.279366493225098,-1.3710873126983645,1.4715858697891235,0.0390942245721817,0.031764056533575,0.1649287492036819,#
9.343972206115724,-1.4093725681304932,1.411765456199646,0.0378725305199623,0.0256555844098329,0.1514901220798492,#
9.504291534423828,-1.3830513954162598,1.65583336353302,0.0500894747674465,0.0134386392310261,0.1136175915598869,#
9.678967475891112,-1.2514461278915403,1.813759446144104,0.0549762547016143,0.0048867780715227,0.0867403075098991,#
9.678967475891112,-1.2514461278915403,1.813759446144104,0.040315918624401,-0.0109952501952648,0.0354291386902332,#
10.047462463378906,-1.4141581058502195,2.3186452388763428,0.0134386392310261,-0.0146603342145681,0.0171037223190069,#
10.325029373168944,-1.7898313999176023,3.1345977783203125,-0.0268772784620523,-0.0134386392310261,-0.0061084721237421,#
10.736595153808594,-2.2755744457244877,4.47697114944458,-0.0268772784620523,0.0134386392310261,0.0171037223190069,#
11.667403221130373,-3.1441688537597656,6.376872539520264,0.0134386392310261,0.0244338884949684,0.0525328628718853,#
12.854243278503418,-3.421736478805542,8.190631866455078,0.235787034034729,0.007330167107284,0.1881409436464309,#
12.854243278503418,-3.421736478805542,8.190631866455078,0.517998456954956,-0.0708582773804664,0.4007157981395721,#
14.605788230895996,-2.706282377243042,9.468399047851562,0.6499415040016174,-0.0855186134576797,0.5155550837516785,#
16.098909378051758,-1.5457634925842283,9.396614074707031,0.9321528673171996,-0.0439810007810592,0.6365028619766235,#
17.072790145874023,-0.2751745879650116,9.379864692687988,1.045770525932312,0.0561979450285434,0.6658235192298889,#
17.60399627685547,0.4522434771060943,8.848658561706543,0.9920158982276917,0.6853706240653992,0.7721109390258789,#
17.60399627685547,0.4522434771060943,8.848658561706543,0.5534276366233826,1.810551166534424,0.8722898364067078,#
16.472190856933594,1.6677974462509155,8.745766639709473,0.1710372269153595,2.522799253463745,0.8771765828132629,#
15.15613842010498,0.8566305041313171,7.7455668449401855,-0.7085827589035034,3.8373422622680655,0.9590301513671876,#
13.962120056152344,0.0981057211756706,6.735795497894287,-1.3719629049301147,4.781712532043457,1.0030112266540527,#
12.658032417297363,-0.3014956414699554,6.664010524749756,-1.5613255500793457,5.190979957580566,1.012784719467163,#
12.658032417297363,-0.3014956414699554,6.664010524749756,-1.9547111988067627,5.932548522949219,0.989572525024414,#
11.763115882873535,-0.6221339106559753,6.285945415496826,-2.300450563430786,6.321047306060791,0.8588511943817139,#
10.750951766967772,-1.3136597871780396,4.613362312316895,-2.5240206718444824,6.374802112579346,0.8319739699363708,#
9.674181938171388,-2.0793628692626958,3.5126638412475586,-2.97604775428772,6.417561054229736,0.767224133014679,#
8.063812255859375,-1.8472589254379272,2.167897224426269,-3.195952653884888,6.423669338226318,0.7403469085693359,#
6.838686943054199,-2.2372891902923584,0.6532405614852905,-3.685852289199829,6.413896083831787,0.8050966858863831,#
6.838686943054199,-2.2372891902923584,0.6532405614852905,-4.025483131408691,6.270957946777344,0.7696675062179565,#
5.965306758880615,-2.51007080078125,0.1866401582956314,-4.090233325958252,6.173222064971924,0.7708892226219177,#
4.445864677429199,-3.091526985168457,-0.6795615553855896,-4.338237285614014,6.1109161376953125,0.8014315962791443,#
3.833301782608032,-3.321237564086914,-1.4500504732131958,-4.519047737121582,5.789610385894775,0.6120689511299133,left
3.3403804302215576,-3.019742012023926,-2.8594231605529785,-4.291812896728516,5.528167724609375,0.2076880484819412,left
3.3403804302215576,-3.019742012023926,-2.8594231605529785,-3.88498854637146,5.012612342834473,0.1966928243637085,left
3.0101709365844727,-4.027120590209961,-3.617947816848755,-3.6748569011688232,4.752391338348389,-0.0256555844098329,left
2.438286304473877,-4.560719966888428,-4.208974838256836,-3.2423770427703857,4.18919038772583,-0.3762818872928619,left
1.794616937637329,-5.328815937042236,-5.264209270477295,-3.297353506088257,3.53191876411438,-0.6132906079292297,left
2.038684844970703,-6.321837425231934,-5.584848403930664,-3.4647257328033447,3.153193473815918,-0.7989881634712219,left
2.2707886695861816,-7.812565803527832,-6.178267955780029,-3.718837976455689,2.3713088035583496,-0.998124361038208,left
2.2707886695861816,-7.812565803527832,-6.178267955780029,-3.630875825881958,1.6517308950424194,-1.2155860662460327,left
2.383251428604126,-10.188638687133787,-7.180860996246338,-3.4439568519592285,1.3340904712677002,-1.3438639640808103,left
2.400001049041748,-11.428120613098145,-8.34855842590332,-2.912519693374634,0.7159129977226257,-1.2302463054656982,left
2.6703903675079346,-12.05504035949707,-9.985249519348145,-2.546011447906494,0.2651077210903168,-1.132510781288147,left
3.728017807006836,-13.294522285461426,-12.258429527282717,-2.539902687072754,0.0293206684291362,-1.0408836603164673,left
3.728017807006836,-13.294522285461426,-12.258429527282717,-2.739039182662964,-0.4911211729049682,-0.8576295375823975,left
4.821537494659424,-14.31865119934082,-14.189438819885254,-2.7414824962615967,-0.7708892226219177,-0.7525637745857239,left
5.840879917144775,-15.113066673278809,-15.117853164672852,-2.2955639362335205,-1.413500428199768,-0.5155550837516785,left
7.791030406951904,-15.223136901855469,-16.285551071166992,-1.413500428199768,-2.309002637863159,-0.2284568697214126,left
11.562118530273438,-15.792630195617676,-18.297914505004883,-1.0286667346954346,-2.831887722015381,-0.0500894747674465,left
14.031512260437012,-14.76850128173828,-18.78365707397461,-0.8307521939277649,-3.965620279312134,0.2773246467113495,left
14.031512260437012,-14.76850128173828,-18.78365707397461,-0.9626952409744264,-5.316814422607422,0.605960488319397,left
15.888341903686523,-13.526626586914062,-17.302499771118164,-0.7977665066719055,-6.06937837600708,0.7806627750396729,left
18.166309356689453,-12.48574924468994,-13.256237030029297,0.2785463333129883,-7.699119091033935,1.1031900644302368,left
21.23151397705078,-11.02134132385254,-8.58066177368164,0.9590301513671876,-8.638601303100586,1.2644537687301636,left
23.63629913330078,-8.910871505737305,-4.201796531677246,2.3395450115203857,-10.612860679626465,1.6040849685668943,left
23.63629913330078,-8.910871505737305,-4.201796531677246,3.1751840114593506,-12.414859771728516,1.8924047946929927,left
24.043081283569336,-7.276573657989502,-1.9118653535842896,3.5306971073150635,-13.307918548583984,2.0414514541625977,left
24.50728988647461,-7.188039302825928,-4.689932346343994,3.735941648483277,-15.01706886291504,2.533794403076172,left
26.024341583251957,-4.436293125152588,-4.161118507385254,3.3364474773406982,-15.23941707611084,2.465379476547241,left
25.91666030883789,-4.0797624588012695,2.6560330390930176,3.115320920944214,-14.332919120788574,2.6694023609161377,left
25.91666030883789,-4.0797624588012695,2.6560330390930176,2.410403251647949,-11.734375,2.5594499111175537,left
23.65304946899414,-4.395615100860596,8.300702095031738,1.5222313404083252,-9.099180221557615,2.65229868888855,left
19.477577209472656,-2.629711866378784,10.411171913146973,1.2168077230453491,-7.916580200195312,2.510582208633423,left
17.22114372253418,-3.483949899673462,11.614761352539062,0.5131116509437561,-6.112137317657471,2.4775965213775635,left
14.701501846313477,-4.34536600112915,11.408977508544922,0.152711808681488,-5.42188024520874,2.378638982772827,left
13.069597244262695,-4.886143684387207,10.1336030960083,-0.1185043603181839,-4.345567226409912,2.097649574279785,left
13.069597244262695,-4.886143684387207,10.1336030960083,0.0708582773804664,-3.468390464782715,1.783673882484436,#
11.562118530273438,-4.941178798675537,8.489734649658203,0.1502684205770492,-3.0566794872283936,1.6309621334075928,#
9.87278652191162,-5.051248073577881,7.369894027709961,0.1832541674375534,-2.299229145050049,1.3157649040222168,#
7.948956489562988,-5.697310447692871,6.802794933319092,-0.1734806150197982,-1.5796509981155396,1.0848647356033323,#
5.876771926879883,-6.886543273925781,6.472585201263428,-0.3811686933040619,-1.2534584999084473,0.9443698525428772,#
5.876771926879883,-6.886543273925781,6.472585201263428,-0.6413896083831787,-0.7012526392936707,0.5876350998878479,#
4.271188735961914,-8.042276382446289,6.491727352142334,-0.6377245187759399,-0.3298574984073639,0.1808107793331146,#
3.177668571472168,-8.116454124450684,6.412764549255371,-0.3151971697807312,-0.2015795856714248,-0.0146603342145681,#
2.3856441974639893,-7.759923934936523,5.905486583709717,0.0818535313010215,0.0207688063383102,-0.3689517080783844,#
2.3018953800201416,-7.020541667938232,5.515456199645996,0.2186833024024963,0.0537545569241046,-0.4740174412727356,#
2.249253273010254,-6.996613025665283,4.950750350952148,0.130721315741539,0.0305423624813556,-0.6694886088371277,#
2.249253273010254,-6.996613025665283,4.950750350952148,0.0097735561430454,0.0781884491443634,-0.8319739699363708,#
2.344966173171997,-6.900900363922119,4.268795490264893,-0.0378725305199623,0.1148392781615257,-0.896723747253418,#
2.4717857837677,-6.8482584953308105,4.065405368804932,0.0280989725142717,0.235787034034729,-1.045770525932312,#
2.057827472686768,-6.721438884735107,3.950549840927124,0.0818535313010215,0.4642439186573028,-1.1911520957946775,#
2.416750907897949,-6.508477687835693,4.012763977050781,0.0818535313010215,0.5803048610687256,-1.268118977546692,#
2.416750907897949,-6.508477687835693,4.012763977050781,-0.0378725305199623,0.7232431173324585,-1.4220523834228516,#
3.067598581314087,-6.747759819030762,4.043870449066162,-0.1905843466520309,0.9284878373146056,-1.718924045562744,#
3.531806230545044,-7.45364236831665,3.876372575759888,-0.178367406129837,1.1166287660598757,-1.90339994430542,#
3.579662799835205,-7.83410120010376,3.936193227767944,-0.2235700935125351,1.2265812158584597,-1.9754799604415891,#
3.2757742404937744,-8.059026718139648,4.053441524505615,-0.2101314514875412,1.4110571146011353,-2.2198188304901123,#
3.4480574131011963,-7.853243827819824,4.175475597381592,0.152711808681488,1.4758068323135376,-2.4079599380493164,#
3.4480574131011963,-7.853243827819824,4.175475597381592,0.4190412163734436,1.4904673099517822,-2.539902687072754,#
3.483949899673462,-8.544770240783691,4.570291519165039,1.068982720375061,1.5515520572662354,-2.759807825088501,#
2.888136863708496,-9.04726219177246,4.838287353515625,1.3023263216018677,1.4574815034866333,-2.9980382919311523,#
2.770888566970825,-7.666603565216064,4.840680122375488,1.2143642902374268,1.3548591136932373,-2.9980382919311523,#
2.390429735183716,-6.776473522186279,5.283352375030518,0.7403469085693359,1.132510781288147,-3.147085189819336,#
2.390429735183716,-6.776473522186279,5.283352375030518,0.4654656052589416,1.0152281522750854,-3.0969953536987305,#
3.122633695602417,-7.111469268798828,5.5106706619262695,-0.0745233595371246,0.7684457898139954,-3.104325532913208,#
4.8502516746521,-7.841279983520508,6.819544315338135,-0.0500894747674465,0.5851916074752808,-2.8819773197174072,#
5.5968122482299805,-7.573283672332764,6.886543273925781,0.0390942245721817,0.5289937257766724,-2.747591018676758,#
5.5968122482299805,-7.573283672332764,6.886543273925781,0.4068242609500885,0.3946073353290558,-2.695058107376098,#
6.632904052734375,-7.520641803741455,6.553941249847412,0.726908266544342,0.2516690790653229,-2.8624300956726074,#
7.726424217224121,-5.747560024261475,5.831308364868164,0.7684457898139954,0.2272351831197738,-2.910076379776001,#
6.745367050170898,-4.7952165603637695,5.295316696166992,0.3555130958557129,0.1221694499254226,-2.434837102890014,#
7.22871732711792,-4.149154186248779,4.740181922912598,0.031764056533575,0.1392731666564941,-2.60953950881958,#
7.216752529144287,-3.730410575866699,4.747360229492188,-0.2895416021347046,0.0500894747674465,-2.425063371658325,#
7.216752529144287,-3.730410575866699,4.747360229492188,-0.7452336549758911,-0.0122169442474842,-2.350540399551392,#
7.767102241516113,-4.438685894012451,4.589433670043945,-0.9077189564704896,-0.0537545569241046,-2.35787034034729,#
8.334200859069824,-4.510470867156982,4.666004180908203,-1.0934165716171265,-0.1331647038459777,-2.4372804164886475,#
8.855835914611816,-5.096712112426758,4.721039295196533,-1.1068552732467651,-0.2284568697214126,-2.4983651638031006,#
8.805586814880371,-4.015156269073486,4.407578945159912,-1.0555440187454224,-0.2785463333129883,-2.510582208633423,#
8.805586814880371,-4.015156269073486,4.407578945159912,-0.9492565989494324,-0.3567348122596741,-2.45927095413208,#
8.860621452331543,-3.684947013854981,4.115654945373535,-0.911384105682373,-0.3872771561145782,-2.395742893218994,#
9.016156196594238,-3.38823676109314,3.9146575927734375,-1.0286667346954346,-0.4373666048049927,-2.349318504333496,#
9.3128662109375,-3.615554809570313,3.6921253204345694,-1.3719629049301147,-0.5155550837516785,-2.2833471298217773,#
9.44447135925293,-3.9912283420562735,3.6945178508758554,-1.5784293413162231,-0.5644228458404541,-2.250361204147339,#
9.54496955871582,-3.926621913909912,3.651447057723999,-1.9095085859298704,-0.6487197875976562,-2.180724620819092,#
9.54496955871582,-3.926621913909912,3.651447057723999,-2.148960590362549,-0.6890356540679932,-2.117196559906006,#
9.726823806762695,-4.122833251953125,3.431307554244995,-2.2063801288604736,-0.7061393857002258,-2.0964276790618896,#
9.858428955078123,-4.098905563354492,3.479164123535156,-2.2295923233032227,-0.7293516397476196,-2.047559976577759,#
10.088139533996582,-4.101297855377197,3.28773832321167,-2.1391870975494385,-0.7293516397476196,-2.025569438934326,#
10.140782356262209,-4.130012035369873,3.0077781677246094,-2.070772171020508,-0.7220214009284973,-2.010909080505371,#
10.140782356262209,-4.130012035369873,3.0077781677246094,-1.9437159299850464,-0.7134696245193481,-1.9815884828567505,#
10.341779708862305,-4.00319242477417,2.96949315071106,-1.8972915410995483,-0.7110261917114258,-1.9730366468429563,#
10.427922248840332,-4.02472734451294,2.957528829574585,-1.838650107383728,-0.712247908115387,-1.9583762884140012,#
10.48534870147705,-4.046263217926025,2.8977081775665283,-1.803221106529236,-0.7256865501403809,-1.926612138748169,#
10.593026161193848,-4.113262176513672,2.837887763977051,-1.767791986465454,-0.7317950129508972,-1.8911830186843872,#
10.693524360656738,-4.295116424560547,2.9240293502807617,-1.6786081790924072,-0.7427902817726135,-1.7897825241088867,#
10.693524360656738,-4.295116424560547,2.9240293502807617,-1.534448266029358,-0.7427902817726135,-1.645622491836548,#
11.064411163330078,-4.25922441482544,3.3092737197875977,-1.4489295482635498,-0.7366817593574524,-1.5613255500793457,#
11.265408515930176,-4.029513359069824,3.35713005065918,-1.2461284399032593,-0.7293516397476196,-1.3756279945373535,#
10.762916564941406,-3.644268989562988,3.012563943862915,-0.965138614177704,-0.7281299233436584,-1.09219491481781,#
10.461421012878418,-3.273381233215332,2.682354211807251,-0.8429691791534424,-0.7036960124969482,-0.939483106136322,#
10.461421012878418,-3.273381233215332,2.682354211807251,-0.6817055344581604,-0.6193991303443909,-0.6584933400154114,#
10.25324535369873,-2.8977081775665283,2.596212387084961,-0.6071821451187134,-0.5705313086509705,-0.5277720093727112,#
10.181459426879885,-2.622533798217773,2.5363922119140625,-0.4581354260444641,-0.4679089784622192,-0.3029802441596985,#
10.320244789123535,-2.342573404312134,2.531606435775757,-0.3530696928501129,-0.3445178270339966,-0.1808107793331146,#
10.00439167022705,-2.194218397140503,2.445464611053467,-0.3249707520008087,-0.3054236173629761,-0.1160609796643257,#
9.566505432128906,-2.108076810836792,2.337787628173828,-0.310310423374176,-0.2040229737758636,-0.0537545569241046,#
9.566505432128906,-2.108076810836792,2.337787628173828,-0.3408527672290802,-0.100178949534893,0.0048867780715227,#
9.284152030944824,-2.0027925968170166,2.3162522315979004,-0.3579564988613128,-0.0659715011715889,0.0195471122860908,#
9.207581520080566,-1.9286150932312007,2.25403904914856,-0.3897205293178558,-0.0109952501952648,0.0366508327424526,#
9.001798629760742,-2.0745770931243896,2.297109842300415,-0.4141544103622436,0.0146603342145681,0.0390942245721817,#
9.06879711151123,-2.0961124897003174,2.242074966430664,-0.4569137394428253,0.0574196390807628,0.040315918624401,#
9.06879711151123,-2.0961124897003174,2.242074966430664,-0.4593571126461029,0.0855186134576797,0.0366508327424526,#
8.96112060546875,-2.251646041870117,2.194218397140503,-0.448361873626709,0.0940704718232154,0.031764056533575,#
8.83669376373291,-2.3497519493103027,2.0889341831207275,-0.3799469769001007,0.1099525094032287,0.0109952501952648,#
8.805586814880371,-2.5124638080596924,2.007578134536743,-0.2980934381484985,0.1148392781615257,0.0061084721237421,#
8.858229637145996,-2.524427890777588,2.038684844970703,-0.2418954968452453,0.1172826737165451,-0.0048867780715227,#
8.858229637145996,-2.524427890777588,2.038684844970703,-0.1136175915598869,0.1136175915598869,-0.0061084721237421,#
8.997013092041016,-2.589033842086792,1.9334007501602173,0.0219905003905296,0.1014006435871124,-0.003665083553642,#
9.07119083404541,-2.562713146209717,1.804188132286072,0.0904053896665573,0.0989572554826736,0.0097735561430454,#
9.05683422088623,-2.567498683929444,1.6127625703811646,0.1734806150197982,0.0989572554826736,0.0452026948332786,#
8.903693199157715,-2.4981069564819336,1.3663017749786377,0.2125748395919799,0.0977355539798736,0.0733016654849052,#
8.793622970581055,-2.4670000076293945,1.215553879737854,0.2785463333129883,0.1111741960048675,0.1221694499254226,#
8.793622970581055,-2.4670000076293945,1.215553879737854,0.3090887069702148,0.1221694499254226,0.1722589135169983,#
8.86780071258545,-2.6009981632232666,1.1748759746551514,0.31641885638237,0.1209477484226226,0.1795890927314758,#
9.128618240356444,-2.75174617767334,1.146162033081055,0.3432961404323578,0.0989572554826736,0.1869192570447921,#
9.34157943725586,-2.7972097396850586,1.093519926071167,0.4068242609500885,0.0525328628718853,0.1954711079597473,#
9.561718940734863,-2.914458036422729,1.0863415002822876,0.4508052766323089,0.0244338884949684,0.2101314514875412,#
9.561718940734863,-2.914458036422729,1.0863415002822876,0.5644228458404541,-0.0378725305199623,0.2235700935125351,#
9.8871431350708,-2.943171739578247,0.9786643981933594,0.620620846748352,-0.0623064190149307,0.2431172132492065,#
10.037891387939451,-2.919243574142456,0.97148597240448,0.7146912813186646,-0.0928487852215766,0.2980934381484985,#
10.25324535369873,-2.8809585571289062,0.973878800868988,0.7941014170646667,-0.1014006435871124,0.3799469769001007,#
10.313065528869627,-2.7254250049591064,0.9427721500396729,0.833195686340332,-0.0977355539798736,0.4300364553928375,#
10.341779708862305,-2.526820659637451,0.9044869542121888,0.8979454636573792,-0.0794101431965828,0.5522059202194214,#
10.341779708862305,-2.526820659637451,0.9044869542121888,0.9358179569244384,-0.0586413368582725,0.6902573704719543,#
10.372885704040527,-2.311466693878174,1.0169496536254885,0.9529216885566713,-0.0439810007810592,0.7598939538002014,#
10.26520824432373,-2.170289993286133,1.0504491329193115,0.9773555994033812,-0.0183254163712263,0.891836941242218,#
10.16231918334961,-1.8927226066589355,1.0049854516983032,1.0042328834533691,0.003665083553642,1.0042328834533691,#
10.25802993774414,-1.6677974462509155,1.0480562448501587,1.0152281522750854,0.0146603342145681,1.0494356155395508,#
10.25802993774414,-1.6677974462509155,1.0480562448501587,1.0494356155395508,0.0366508327424526,1.1202938556671145,#
10.26520824432373,-1.4691929817199707,1.0600204467773438,1.0653176307678225,0.0427593067288398,1.137397527694702,#
10.016355514526367,-1.2681961059570312,1.2299107313156128,1.0799779891967771,0.0439810007810592,1.1398409605026243,#
9.832108497619627,-1.0600204467773438,1.3016955852508545,1.068982720375061,0.0244338884949684,1.1044118404388428,#
9.621540069580078,-0.9427721500396729,1.3854442834854126,1.0482138395309448,0.0085518611595034,1.077534556388855,#
9.506684303283691,-0.7992027401924133,1.442872166633606,0.9932376146316528,-0.0305423624813556,1.0030112266540527,#
9.506684303283691,-0.7992027401924133,1.442872166633606,0.9223793148994446,-0.0684148892760276,0.9150491952896118,#
9.439685821533203,-0.7202396392822266,1.380658507347107,0.8857284784317017,-0.0855186134576797,0.864959716796875,#
9.360722541809082,-0.607776939868927,1.5050854682922363,0.8063183426856995,-0.1160609796643257,0.7550071477890015,#
9.34157943725586,-0.6460621356964111,1.574477195739746,0.7635590434074402,-0.129499614238739,0.6939224600791931,#
9.265008926391602,-0.5479563474655151,1.6319050788879397,0.6731536388397217,-0.1600419729948043,0.5668662190437317,#
9.265008926391602,-0.5479563474655151,1.6319050788879397,0.577861487865448,-0.1942494213581085,0.4324798583984375,#
9.214759826660156,-0.5862415432929993,1.648654818534851,0.5289937257766724,-0.2125748395919799,0.3677300214767456,#
9.133403778076172,-0.5288137793540955,1.6869399547576904,0.4239279925823211,-0.2431172132492065,0.2370087206363678,#
9.08554744720459,-0.5623133182525635,1.7324036359786987,0.3127537965774536,-0.2687727808952331,0.1026223376393318,#
9.138189315795898,-0.6867401003837585,1.8400806188583372,0.2602209150791168,-0.2809897363185882,0.0342074446380138,#
9.138189315795898,-0.6867401003837585,1.8400806188583372,0.1624853760004043,-0.3017585575580597,-0.1014006435871124,#
9.1716890335083,-0.8063812851905823,1.9238293170928955,0.0794101431965828,-0.3200839459896087,-0.2382304221391677,#
9.15733242034912,-0.9260223507881165,1.8831514120101929,0.0488677769899368,-0.3261924386024475,-0.3054236173629761,#
9.26740264892578,-0.9212367534637452,1.8472589254379272,-0.0183254163712263,-0.3298574984073639,-0.4361449182033539,#
9.370293617248535,-1.0815558433532717,1.8185452222824097,-0.0561979450285434,-0.3298574984073639,-0.4972296357154846,#
9.511469841003418,-1.1868400573730469,1.7563319206237793,-0.1404948681592941,-0.3213056325912475,-0.6108472347259521,#
9.511469841003418,-1.1868400573730469,1.7563319206237793,-0.2296785563230514,-0.3139754831790924,-0.7036960124969482,#
9.494720458984377,-1.4069796800613403,1.7515461444854736,-0.2773246467113495,-0.3090887069702148,-0.7476770281791687,#
9.556933403015137,-1.5481561422348022,1.7204395532608032,-0.3591781854629516,-0.3042019307613373,-0.818535327911377,#
9.659825325012209,-1.6845470666885376,1.6223337650299072,-0.4190412163734436,-0.2993151545524597,-0.8710681796073914,#
9.865608215332031,-1.856830358505249,1.6079767942428589,-0.439810037612915,-0.2956500649452209,-0.891836941242218,#
9.865608215332031,-1.856830358505249,1.6079767942428589,-0.4691306948661804,-0.2858764827251434,-0.9223793148994446,#
9.882357597351074,-1.9908283948898315,1.588834285736084,-0.4776825606822967,-0.2797680497169494,-0.9321528673171996,#
9.89432144165039,-2.1272192001342773,1.5242280960083008,-0.4960079491138458,-0.2602209150791168,-0.9333745837211608,#
9.923035621643066,-2.210968255996704,1.4548362493515017,-0.5131116509437561,-0.2370087206363678,-0.9150491952896118,#
9.956534385681152,-2.3401806354522705,1.428515076637268,-0.5241069197654724,-0.2223483920097351,-0.8979454636573792,#
9.958927154541016,-2.438286304473877,1.430907964706421,-0.546097457408905,-0.1905843466520309,-0.8502993583679199,#
9.958927154541016,-2.438286304473877,1.430907964706421,-0.5693095922470093,-0.1514901220798492,-0.7733326554298401,#
9.901500701904297,-2.548356056213379,1.373480200767517,-0.5803048610687256,-0.128277912735939,-0.7330166697502136,#
9.920641899108888,-2.5914268493652344,1.2586246728897097,-0.5974085927009583,-0.0806318372488021,-0.6401678919792175,#
9.906286239624023,-2.6321046352386475,1.1820544004440308,-0.6145123243331909,-0.0378725305199623,-0.5424323678016663,#
9.738788604736328,-2.7038896083831787,1.196411371231079,-0.6193991303443909,-0.0146603342145681,-0.4886777997016907,#
9.738788604736328,-2.7038896083831787,1.196411371231079,-0.6157339811325073,0.0195471122860908,-0.3848337531089782,#
9.645467758178713,-2.744567632675171,1.1892328262329102,-0.6071821451187134,0.031764056533575,-0.3371876776218414,#
9.525827407836914,-2.7948169708251958,1.131805181503296,-0.5790832042694092,0.0476460866630077,-0.2467822879552841,#
9.487542152404783,-2.847458839416504,1.2083754539489746,-0.517998456954956,0.0561979450285434,-0.1649287492036819,#
9.408578872680664,-2.837887763977051,1.184447169303894,-0.4740174412727356,0.0586413368582725,-0.128277912735939,#
9.456435203552246,-2.7948169708251958,1.2035897970199585,-0.3713951408863067,0.0610847249627113,-0.0684148892760276,#
9.456435203552246,-2.7948169708251958,1.2035897970199585,-0.2602209150791168,0.0598630309104919,-0.0085518611595034,#
9.499505043029783,-2.6608188152313232,1.179661512374878,-0.2101314514875412,0.0549762547016143,0.0171037223190069,#
9.418149948120115,-2.543570280075073,1.2610174417495728,-0.128277912735939,0.0415376126766204,0.0708582773804664,#
9.482755661010742,-2.5004994869232178,1.2179466485977173,-0.0769667476415634,0.0293206684291362,0.1319430023431778,#
9.509077072143556,-2.366501569747925,1.2873386144638062,-0.0549762547016143,0.0268772784620523,0.1661504507064819,#
9.509077072143556,-2.366501569747925,1.2873386144638062,-0.0183254163712263,0.0378725305199623,0.2406738102436065,#
9.600004196166992,-2.179861307144165,1.3040882349014282,-0.0012216945178806,0.0476460866630077,0.2785463333129883,#
9.628718376159668,-2.218146562576294,1.3878371715545654,0.0378725305199623,0.069636583328247,0.3457395434379577,#
9.609575271606444,-2.053041696548462,1.4069796800613403,0.0794101431965828,0.0904053896665573,0.4043808877468109,#
9.681360244750977,-1.954936146736145,1.459621787071228,0.0977355539798736,0.100178949534893,0.4288147687911987,#
9.681360244750977,-1.954936146736145,1.459621787071228,0.1246128380298614,0.1111741960048675,0.4703523814678192,#
9.652647018432615,-1.8305093050003047,1.495514154434204,0.1466033309698104,0.1221694499254226,0.5033381581306458,#
9.667003631591797,-1.6677974462509155,1.4835500717163086,0.1514901220798492,0.1258345395326614,0.5167768001556396,#
9.659825325012209,-1.519442439079285,1.5026925802230835,0.1575985848903656,0.1319430023431778,0.5351021885871887,#
9.595218658447266,-1.519442439079285,1.56251323223114,0.1588202863931656,0.1343863904476165,0.5375455617904663,#
9.664610862731934,-1.4261221885681152,1.5026925802230835,0.1698155403137207,0.1404948681592941,0.5326588153839111,#
9.664610862731934,-1.4261221885681152,1.5026925802230835,0.1844758540391922,0.1392731666564941,0.5143333673477173,#
9.554540634155272,-1.3351951837539673,1.5122638940811155,0.1893626451492309,0.1368297785520553,0.5033381581306458,#
9.530611991882324,-1.241874933242798,1.584048628807068,0.1966928243637085,0.1319430023431778,0.4691306948661804,#
9.473184585571287,-1.2514461278915403,1.6199408769607544,0.1966928243637085,0.128277912735939,0.4300364553928375,#
9.487542152404783,-1.1389836072921753,1.6055840253829956,0.1918060332536697,0.1246128380298614,0.4080459475517273,#
9.487542152404783,-1.1389836072921753,1.6055840253829956,0.1734806150197982,0.1148392781615257,0.3567348122596741,#
9.489934921264648,-1.1198409795761108,1.6390833854675293,0.1612636744976043,0.1087308079004287,0.3274141252040863,#
9.504291534423828,-1.1485549211502075,1.588834285736084,0.1319430023431778,0.0965138673782348,0.2626643180847168,#
9.38943576812744,-1.1413763761520386,1.5553346872329712,0.100178949534893,0.0830752253532409,0.1979145109653473,#
9.332008361816406,-1.1653046607971191,1.6079767942428589,0.0806318372488021,0.0781884491443634,0.1637070626020431,#
9.456435203552246,-1.1940184831619265,1.5337992906570437,0.0427593067288398,0.069636583328247,0.100178949534893,#
9.456435203552246,-1.1940184831619265,1.5337992906570437,0.0097735561430454,0.0598630309104919,0.0378725305199623,#
9.518648147583008,-1.3423734903335571,1.5122638940811155,-0.0061084721237421,0.0549762547016143,0.0061084721237421,#
9.568897247314451,-1.3351951837539673,1.4644075632095337,-0.0293206684291362,0.040315918624401,-0.0561979450285434,#
9.523433685302734,-1.5122638940811155,1.6175479888916016,-0.0500894747674465,0.0171037223190069,-0.1160609796643257,#
9.525827407836914,-1.6319050788879397,1.514656662940979,-0.0610847249627113,0.003665083553642,-0.1404948681592941,#
9.525827407836914,-1.6319050788879397,1.514656662940979,-0.0794101431965828,-0.0183254163712263,-0.1808107793331146,#
9.382257461547852,-1.5864413976669312,1.5122638940811155,-0.0867403075098991,-0.0219905003905296,-0.1954711079597473,#
9.394222259521484,-1.7635102272033691,1.4811571836471558,-0.0977355539798736,-0.0232121963053941,-0.2137965410947799,#
9.456435203552246,-1.730010747909546,1.4835500717163086,-0.1136175915598869,-0.0183254163712263,-0.2223483920097351,#
9.470791816711426,-1.8592231273651123,1.4859429597854614,-0.1221694499254226,-0.0183254163712263,-0.2260134816169738,#
9.449256896972656,-1.940579175949097,1.5050854682922363,-0.1441599577665329,-0.0207688063383102,-0.235787034034729,#
9.449256896972656,-1.940579175949097,1.5050854682922363,-0.1563768982887268,-0.0280989725142717,-0.2455605864524841,#
