accX,accY,accZ,gyrX,gyrY,gyrZ,annotation
9.616753578186035,-1.4141581058502195,0.9116654396057128,0.0244338884949684,-0.0195471122860908,-0.0097735561430454,#
9.671788215637209,-1.4333008527755735,0.9044869542121888,0.031764056533575,-0.0171037223190069,-0.0024433890357613,#
9.671788215637209,-1.4333008527755735,0.9044869542121888,0.0329857505857944,-0.0134386392310261,0.0024433890357613,#
9.614361763000488,-1.4380863904953003,0.9140582084655762,0.0268772784620523,-0.0097735561430454,0.0134386392310261,#
9.578469276428224,-1.4333008527755735,0.8327022790908813,0.0171037223190069,-0.0085518611595034,0.0219905003905296,#
9.659825325012209,-1.4261221885681152,0.8925228118896484,0.0134386392310261,-0.0085518611595034,0.0256555844098329,#
9.678967475891112,-1.3495519161224363,0.8159525394439697,0.0085518611595034,-0.0122169442474842,0.0293206684291362,#
9.678967475891112,-1.3495519161224363,0.8159525394439697,0.0061084721237421,-0.0109952501952648,0.0293206684291362,#
9.652647018432615,-1.3304094076156616,0.8494520783424377,0.0085518611595034,-0.0122169442474842,0.0293206684291362,#
9.62393283843994,-1.4189438819885254,0.8542376756668091,0.0085518611595034,-0.0134386392310261,0.031764056533575,#
9.626325607299805,-1.3280165195465088,0.8733802437782288,0.007330167107284,-0.0158820282667875,0.0342074446380138,#
9.667003631591797,-1.3040882349014282,0.8662018179893494,-0.003665083553642,-0.0134386392310261,0.0366508327424526,#
9.609575271606444,-1.3519448041915894,0.8781659603118896,-0.0109952501952648,-0.0122169442474842,0.0366508327424526,#
9.609575271606444,-1.3519448041915894,0.8781659603118896,-0.0109952501952648,-0.0134386392310261,0.0354291386902332,#
9.650253295898438,-1.3136597871780396,0.8781659603118896,-0.0048867780715227,-0.0183254163712263,0.0280989725142717,#
9.647860527038574,-1.3399806022644043,0.8470591902732849,0.0012216945178806,-0.0219905003905296,0.0219905003905296,#
9.635896682739258,-1.277767300605774,0.8853443264961243,0.0024433890357613,-0.0256555844098329,0.0207688063383102,#
9.688538551330566,-1.2969098091125488,0.8949156999588013,0.003665083553642,-0.0354291386902332,0.0183254163712263,#
9.688538551330566,-1.2969098091125488,0.8949156999588013,-0.0061084721237421,-0.0390942245721817,0.0146603342145681,#
9.678967475891112,-1.3782659769058228,0.8685945868492126,-0.0061084721237421,-0.0293206684291362,0.0207688063383102,#
9.678967475891112,-1.3280165195465088,0.8255237936973572,-0.0109952501952648,-0.0195471122860908,0.0268772784620523,#
9.702895164489746,-1.4069796800613403,0.9092726111412048,-0.0158820282667875,-0.0171037223190069,0.0280989725142717,#
9.736394882202148,-1.4452648162841797,0.8997013568878174,-0.0109952501952648,-0.0171037223190069,0.0354291386902332,#
9.722038269042969,-1.4644075632095337,0.818345308303833,-0.0012216945178806,-0.0158820282667875,0.040315918624401,#
9.722038269042969,-1.4644075632095337,0.818345308303833,0.0012216945178806,-0.0158820282667875,0.0378725305199623,#
9.647860527038574,-1.435693621635437,0.8422735333442688,0.003665083553642,-0.007330167107284,0.0366508327424526,#
9.607183456420898,-1.4620146751403809,0.8638089299201965,0.0024433890357613,-0.007330167107284,0.0354291386902332,#
9.578469276428224,-1.373480200767517,0.8494520783424377,-0.0061084721237421,-0.0134386392310261,0.0329857505857944,#
9.592825889587402,-1.423729419708252,0.8566305041313171,-0.0134386392310261,-0.0195471122860908,0.0256555844098329,#
9.592825889587402,-1.423729419708252,0.8566305041313171,-0.0134386392310261,-0.0232121963053941,0.0195471122860908,#
9.607183456420898,-1.4404792785644531,0.906879723072052,-0.0134386392310261,-0.0244338884949684,0.007330167107284,#
9.525827407836914,-1.380658507347107,0.8350951075553894,-0.0109952501952648,-0.0183254163712263,-0.003665083553642,#
9.580862045288086,-1.4668002128601074,0.8709874749183655,-0.0097735561430454,-0.0171037223190069,-0.007330167107284,#
9.707681655883787,-1.5409778356552124,0.9786643981933594,-0.007330167107284,-0.0158820282667875,-0.0122169442474842,#
9.707681655883787,-1.5409778356552124,0.9786643981933594,-0.003665083553642,-0.0183254163712263,-0.0122169442474842,#
9.724431037902832,-1.574477195739746,0.906879723072052,-0.003665083553642,-0.0207688063383102,-0.0024433890357613,#
9.750752449035645,-1.588834285736084,0.8494520783424377,-0.0085518611595034,-0.0219905003905296,0.0061084721237421,#
9.69332504272461,-1.703689694404602,0.8877372145652771,-0.0134386392310261,-0.0171037223190069,0.0134386392310261,#
9.726823806762695,-1.641476273536682,0.8327022790908813,-0.0158820282667875,-0.003665083553642,0.0354291386902332,#
9.695716857910156,-1.6462620496749878,0.8303093910217285,-0.0109952501952648,0.0158820282667875,0.0488677769899368,#
9.695716857910156,-1.6462620496749878,0.8303093910217285,-0.0085518611595034,0.0232121963053941,0.0525328628718853,#
9.511469841003418,-1.576870083808899,0.8566305041313171,-0.0097735561430454,0.0280989725142717,0.0598630309104919,#
9.542576789855955,-1.5385849475860596,0.8973084688186646,-0.0207688063383102,0.0268772784620523,0.0610847249627113,#
9.571290969848633,-1.6175479888916016,0.794417142868042,-0.0256555844098329,0.0219905003905296,0.0586413368582725,#
9.547362327575684,-1.648654818534851,0.8327022790908813,-0.0366508327424526,0.0146603342145681,0.0525328628718853,#
9.547362327575684,-1.648654818534851,0.8327022790908813,-0.040315918624401,0.0097735561430454,0.0561979450285434,#
9.602396965026855,-1.6701902151107788,0.8422735333442688,-0.0427593067288398,0.0012216945178806,0.0623064190149307,#
9.652647018432615,-1.7347965240478516,0.8303093910217285,-0.0329857505857944,-0.0012216945178806,0.0647498071193695,#
9.710074424743652,-1.7252250909805298,0.8374879360198975,-0.0268772784620523,-0.0012216945178806,0.0708582773804664,#
9.726823806762695,-1.6941183805465698,0.8303093910217285,-0.0268772784620523,-0.003665083553642,0.0745233595371246,#
9.726823806762695,-1.6941183805465698,0.8303093910217285,-0.0122169442474842,0.0232121963053941,0.0720799788832664,#
9.619147300720217,-1.6701902151107788,0.7896314859390259,-0.0122169442474842,0.0244338884949684,0.0855186134576797,#
9.528220176696776,-1.5361920595169067,0.8087739944458008,-0.0195471122860908,0.0207688063383102,0.0916270837187767,#
9.650253295898438,-1.526620864868164,0.8255237936973572,-0.0293206684291362,0.0195471122860908,0.0965138673782348,#
9.647860527038574,-1.497907042503357,0.7896314859390259,-0.0488677769899368,0.0171037223190069,0.0965138673782348,#
9.710074424743652,-1.4380863904953003,0.7824530005455017,-0.0549762547016143,0.0171037223190069,0.0806318372488021,#
9.710074424743652,-1.4380863904953003,0.7824530005455017,-0.0488677769899368,0.0158820282667875,0.069636583328247,#
9.621540069580078,-1.521835207939148,0.8446664214134216,-0.0232121963053941,0.007330167107284,0.040315918624401,#
9.588040351867676,-1.4500504732131958,0.8087739944458008,-0.0024433890357613,-0.0109952501952648,0.0109952501952648,#
9.600004196166992,-1.4404792785644531,0.8733802437782288,0.0048867780715227,-0.0183254163712263,0.0024433890357613,#
9.652647018432615,-1.4524433612823486,0.8973084688186646,0.0122169442474842,-0.0305423624813556,-0.0134386392310261,#
9.652647018432615,-1.4524433612823486,0.8973084688186646,0.0097735561430454,-0.0305423624813556,-0.0195471122860908,#
9.69093132019043,-1.4021940231323242,0.9810572862625122,0.0048867780715227,-0.0256555844098329,-0.0293206684291362,#
9.743573188781738,-1.4763716459274292,0.9547362923622132,-0.0024433890357613,-0.0195471122860908,-0.0342074446380138,#
9.760323524475098,-1.5170495510101318,0.9930213689804076,-0.007330167107284,-0.0122169442474842,-0.0342074446380138,#
9.789037704467772,-1.6151552200317385,0.9906285405158995,-0.0195471122860908,-0.007330167107284,-0.0256555844098329,#
9.736394882202148,-1.6701902151107788,0.9188438653945924,-0.0293206684291362,0.0122169442474842,-0.0134386392310261,#
9.736394882202148,-1.6701902151107788,0.9188438653945924,-0.0354291386902332,0.0183254163712263,-0.0048867780715227,#
9.71485996246338,-1.739582061767578,0.9332008361816406,-0.040315918624401,0.0342074446380138,0.0061084721237421,#
9.614361763000488,-1.7563319206237793,0.8805587291717529,-0.0293206684291362,0.0342074446380138,0.0134386392310261,#
9.635896682739258,-1.7922240495681765,0.906879723072052,-0.0256555844098329,0.0305423624813556,0.0171037223190069,#
9.607183456420898,-1.706082463264465,0.8685945868492126,-0.0171037223190069,0.0244338884949684,0.0232121963053941,#
9.607183456420898,-1.706082463264465,0.8685945868492126,-0.0146603342145681,0.0232121963053941,0.0256555844098329,#
9.521041870117188,-1.8185452222824097,0.82791668176651,-0.0171037223190069,0.0280989725142717,0.0256555844098329,#
9.568897247314451,-1.8783657550811768,0.8494520783424377,-0.0195471122860908,0.0354291386902332,0.0268772784620523,#
9.530611991882324,-1.7730815410614014,0.7704889178276062,-0.0195471122860908,0.0354291386902332,0.0293206684291362,#
9.470791816711426,-1.8424735069274905,0.8039883971214294,-0.0134386392310261,0.0305423624813556,0.0268772784620523,#
9.470791816711426,-1.8424735069274905,0.8039883971214294,-0.007330167107284,0.0219905003905296,0.0244338884949684,#
9.516255378723145,-1.7132610082626345,0.8470591902732849,0.003665083553642,0.0219905003905296,0.0195471122860908,#
9.482755661010742,-1.710868239402771,0.8398807048797607,0.0146603342145681,-0.0195471122860908,0.0158820282667875,#
9.597611427307127,-1.7371891736984253,0.8494520783424377,0.0183254163712263,-0.0244338884949684,0.0146603342145681,#
9.566505432128906,-1.765903115272522,0.8781659603118896,0.0268772784620523,-0.0268772784620523,0.0171037223190069,#
9.561718940734863,-1.7252250909805298,0.8709874749183655,0.0232121963053941,-0.0268772784620523,0.0256555844098329,#
9.561718940734863,-1.7252250909805298,0.8709874749183655,0.0183254163712263,-0.0244338884949684,0.0280989725142717,#
9.57607650756836,-1.7635102272033691,0.8733802437782288,0.0219905003905296,-0.0244338884949684,0.0305423624813556,#
9.616753578186035,-1.7347965240478516,0.8662018179893494,0.0342074446380138,-0.0280989725142717,0.0293206684291362,#
9.568897247314451,-1.7754744291305542,0.8350951075553894,0.040315918624401,-0.0329857505857944,0.0268772784620523,#
9.592825889587402,-1.66301167011261,0.9260223507881165,0.0488677769899368,-0.0476460866630077,0.0244338884949684,#
9.592825889587402,-1.66301167011261,0.9260223507881165,0.0525328628718853,-0.0561979450285434,0.0268772784620523,#
9.796216011047363,-1.758724570274353,0.906879723072052,0.0659715011715889,-0.0708582773804664,0.0354291386902332,#
9.719645500183104,-1.9046868085861208,0.9379864931106568,0.0781884491443634,-0.0659715011715889,0.0647498071193695,#
9.80817985534668,-1.94297194480896,0.9308080077171326,0.0745233595371246,-0.0623064190149307,0.0794101431965828,#
9.772287368774414,-2.0865414142608643,0.9619146585464478,0.069636583328247,-0.0342074446380138,0.100178949534893,#
9.772287368774414,-2.0865414142608643,0.9619146585464478,0.069636583328247,-0.0232121963053941,0.1392731666564941,#
9.868000030517578,-2.203789472579956,1.0959126949310305,0.0561979450285434,-0.0268772784620523,0.1624853760004043,#
9.681360244750977,-2.091326951980591,1.131805181503296,0.0061084721237421,-0.0354291386902332,0.2333436459302902,#
9.722038269042969,-2.266003131866455,1.0695916414260864,-0.0329857505857944,-0.0158820282667875,0.258999228477478,#
9.635896682739258,-2.3234307765960693,1.2610174417495728,-0.1050657257437706,0.0134386392310261,0.31641885638237,#
9.80100154876709,-2.476571559906006,1.2969098091125488,-0.1710372269153595,0.0268772784620523,0.3396310806274414,#
9.80100154876709,-2.476571559906006,1.2969098091125488,-0.199136197566986,0.031764056533575,0.3567348122596741,#
9.781858444213867,-2.8043880462646484,1.241874933242798,-0.1966928243637085,0.0415376126766204,0.3787252902984619,#
9.832108497619627,-3.1513471603393555,1.2658032178878784,-0.1514901220798492,0.0708582773804664,0.4520269632339477,#
9.81057357788086,-3.2853453159332275,1.2634103298187256,-0.1246128380298614,0.0806318372488021,0.4923428893089294,#
9.891928672790527,-3.239881753921509,1.1772687435150146,-0.0757450610399246,0.1099525094032287,0.554649293422699,#
9.891928672790527,-3.239881753921509,1.1772687435150146,-0.0647498071193695,0.130721315741539,0.574196457862854,#
9.817750930786133,-3.517449140548706,1.4500504732131958,-0.0146603342145681,0.1869192570447921,0.6230642199516296,#
9.820144653320312,-3.658626079559326,1.6701902151107788,0.0769667476415634,0.2052446752786636,0.6853706240653992,#
9.743573188781738,-3.524627923965454,1.6965112686157229,0.0904053896665573,0.2211267054080963,0.7220214009284973,#
9.681360244750977,-3.4743783473968506,2.1918253898620605,-0.0146603342145681,0.2455605864524841,0.7965447902679443,#
9.78664493560791,-3.902693748474121,2.289931058883667,-0.1905843466520309,0.2651077210903168,0.8881718516349792,#
9.78664493560791,-3.902693748474121,2.289931058883667,-0.3200839459896087,0.2809897363185882,0.9541434049606324,#
10.423135757446287,-4.783252716064453,2.756531953811645,-0.4764608442783355,0.3151971697807312,1.1178505420684814,#
10.454241752624512,-5.12303352355957,2.6081764698028564,-0.5754181146621704,0.3921639025211334,1.2937743663787842,#
10.463812828063965,-5.312066078186035,2.2468602657318115,-0.577861487865448,0.4813476204872131,1.3707412481307983,#
10.514062881469728,-5.776273727416992,2.8737800121307373,-0.4337015450000763,0.7330166697502136,1.4977973699569702,#
10.514062881469728,-5.776273727416992,2.8737800121307373,-0.3762818872928619,0.8625163435935974,1.5430002212524414,#
10.89452075958252,-6.491727352142334,4.118047714233398,-0.2370087206363678,1.0335536003112793,1.695711970329285,#
10.89452075958252,-6.338587284088135,3.900300979614258,-0.2785463333129883,1.2033690214157104,1.887518048286438,#
10.37767219543457,-6.068198204040527,3.201596736907959,-0.3872771561145782,1.2791141271591189,1.9498244524002075,#
10.22931671142578,-6.671189785003662,3.170490026473999,-0.5595360994338989,1.4721418619155884,2.0231261253356934,#
10.22931671142578,-6.671189785003662,3.170490026473999,-0.5717529654502869,1.580872654914856,2.1733944416046143,#
9.454042434692385,-6.771688461303711,3.13938307762146,-0.5302154421806335,1.8288766145706177,2.262578248977661,#
9.245866775512695,-6.857830047607422,3.888336658477783,-0.4593571126461029,1.996248722076416,2.363978862762451,#
9.037691116333008,-7.276573657989502,3.9840497970581055,-0.5155550837516785,2.0145742893218994,2.4116251468658447,#
8.453842163085938,-6.455835819244385,3.421736478805542,-0.9932376146316528,2.039008140563965,2.597322702407837,#
7.810173511505127,-5.3694939613342285,3.493520975112915,-1.9754799604415891,1.979145050048828,2.803788661956787,#
7.810173511505127,-5.3694939613342285,3.493520975112915,-2.440945625305176,1.877744436264038,2.8734254837036133,#
7.123432636260986,-7.113861560821533,3.0963122844696045,-2.978491306304932,1.673721432685852,3.0933306217193604,#
7.176074504852295,-8.786444664001465,2.251646041870117,-2.828222751617432,1.7213674783706665,3.2680327892303467,#
6.31944465637207,-8.815157890319824,1.3782659769058228,-2.6193130016326904,1.830098390579224,3.2790281772613525,#
5.627918720245361,-8.185846328735352,0.851844847202301,-2.615647792816162,1.9864752292633057,3.4354047775268555,#
5.627918720245361,-8.185846328735352,0.851844847202301,-2.5069169998168945,2.051224946975708,3.4793858528137207,#
4.565505504608154,-8.86780071258545,1.5960125923156738,-2.2491395473480225,1.979145050048828,3.261924266815185,#
3.8668015003204346,-8.891729354858398,2.799602746963501,-1.7763437032699585,1.58942449092865,2.9833779335021973,#
3.464807271957397,-7.176074504852295,2.469392776489258,-1.716480731964111,1.3304253816604614,2.8856422901153564,#
2.517249345779419,-6.180660724639893,0.7250252366065979,-1.7629051208496094,0.8222004175186157,2.7207136154174805,#
1.4739787578582764,-6.238089084625244,0.0526420958340168,-1.998692274093628,0.6132906079292297,2.7121615409851074,#
1.4739787578582764,-6.238089084625244,0.0526420958340168,-1.9767017364501955,0.5790832042694092,2.604652643203736,#
1.246660590171814,-6.367300987243652,-0.380458801984787,-1.9547111988067627,0.574196457862854,2.365200519561768,#
0.7561319470405579,-6.7621169090271,-0.0957129001617431,-1.770235300064087,0.4898994863033294,2.1770594120025635,#
0.5455635190010071,-6.675975322723389,-0.3373879790306091,-1.557660460472107,0.3726168274879455,1.93272066116333,#
0.3086740970611572,-6.936792850494385,-0.9762716889381408,-1.347529053688049,0.2284568697214126,1.7885607481002808,#
0.3086740970611572,-6.936792850494385,-0.9762716889381408,-1.1569446325302124,0.2235700935125351,1.5466653108596802,#
-0.1962114423513412,-7.192824840545654,-1.2514461278915403,-0.836860716342926,0.2883199155330658,1.1080769300460815,#
-0.0861416235566139,-7.147361278533936,-1.710868239402771,-0.4642439186573028,0.3518480062484741,0.8564078211784363,#
-0.3445664942264557,-6.376872539520264,-1.864008903503418,-0.5241069197654724,0.3994940817356109,0.7635590434074402,#
-0.6652047038078308,-6.943971633911133,-2.1990041732788086,-0.7464553117752075,0.3603998720645904,0.5754181146621704,#
-0.6652047038078308,-6.943971633911133,-2.1990041732788086,-0.8466342687606812,0.2907632887363434,0.4385882914066314,#
-0.5383850932121277,-7.405786037445068,-2.6464619636535645,-0.9333745837211608,0.2675510942935943,0.3481829464435577,#
-0.7106683850288391,-7.927421569824219,-2.8809585571289062,-0.8112051486968994,0.2699944972991943,0.0977355539798736,#
-0.4977070987224579,-8.085347175598145,-2.8187451362609863,-0.6487197875976562,0.2956500649452209,0.1075091138482093,#
-0.7393822073936462,-8.678767204284668,-2.995814085006714,-0.0280989725142717,0.3432961404323578,-0.3616215586662292,#
-0.3852444589138031,-9.030512809753418,-3.239881753921509,0.577861487865448,0.4837909936904907,-0.4593571126461029,#
-0.3852444589138031,-9.030512809753418,-3.239881753921509,0.8637380003929138,0.5607577562332153,-0.5363238453865051,#
-0.6101697683334351,-9.291330337524414,-2.5866410732269287,1.3621894121170044,0.5289937257766724,-0.7012526392936707,#
-0.9260223507881165,-9.571290969848633,-1.761117458343506,1.6969337463378906,0.2602209150791168,-0.7769976854324341,#
-0.6556334495544434,-9.09511947631836,-1.4404792785644531,1.7396929264068604,0.1343863904476165,-0.7892146706581116,#
-0.7106683850288391,-9.260223388671877,-1.442872166633606,1.6065282821655271,-0.1356080919504165,-0.7452336549758911,#
-0.7106683850288391,-9.260223388671877,-1.442872166633606,1.4550381898880005,-0.235787034034729,-0.6878139972686768,#
-0.2536391913890838,-10.126425743103027,-0.8494520783424377,1.3084348440170288,-0.2895416021347046,-0.6157339811325073,#
-0.2321037948131561,-10.870593070983888,-0.4594219326972961,1.3878449201583862,-0.2260134816169738,-0.5851916074752808,#
-0.3517449200153351,-11.365907669067385,-0.2967100143432617,1.5210096836090088,-0.2834331095218658,-0.652384877204895,#
-0.4115655124187469,-10.37527847290039,0.2991028428077698,1.5210096836090088,-0.2638860046863556,-0.4349232316017151,#
-0.4115655124187469,-10.37527847290039,0.2991028428077698,1.196038842201233,-0.3787252902984619,-0.5082249045372009,#
-0.6460621356964111,-10.308279991149902,1.0121639966964722,1.0274450778961182,-0.4434750974178314,-0.5363238453865051,#
-0.2201396822929382,-10.789237022399902,1.1341978311538696,0.9162708520889282,-0.6120689511299133,-0.4019374847412109,#
-0.3254238963127136,-10.619346618652344,0.9044869542121888,0.8759549260139465,-0.6426112651824951,-0.4068242609500885,#
-0.1507478207349777,-10.157532691955566,1.0600204467773438,0.7476770281791687,-0.6939224600791931,-0.3750602006912231,#
0.1818545311689376,-10.715059280395508,1.7515461444854736,0.6792621612548828,-0.6914790868759155,-0.3713951408863067,#
0.1818545311689376,-10.715059280395508,1.7515461444854736,0.6988092660903931,-0.6536065340042114,-0.333522617816925,#
0.3421736359596252,-11.200803756713867,1.7371891736984253,0.860072910785675,-0.554649293422699,-0.2553341388702392,#
0.3230310678482055,-11.16012477874756,1.935793399810791,0.9761338829994202,-0.4324798583984375,-0.1856975704431533,#
0.1698903888463974,-10.387242317199709,2.390429735183716,0.9969027042388916,-0.3469612300395965,-0.1502684205770492,#
-0.1363908797502517,-10.365707397460938,2.9168508052825928,1.188708782196045,-0.2394521236419677,-0.1148392781615257,#
-0.1363908797502517,-10.365707397460938,2.9168508052825928,1.1569446325302124,-0.1856975704431533,-0.0305423624813556,#
-0.2488535493612289,-10.011569023132324,3.0005996227264404,1.0201148986816406,-0.1087308079004287,-0.0623064190149307,#
0.3493521213531494,-10.908878326416016,3.6634113788604736,1.0469921827316284,0.0830752253532409,-0.0452026948332786,#
-0.2225324809551239,-10.193424224853516,3.9912283420562735,1.100746750831604,0.1710372269153595,-0.0427593067288398,#
0.4235295951366424,-10.291529655456545,4.34536600112915,1.0482138395309448,0.4434750974178314,-0.0965138673782348,#
0.1244267746806144,-8.709875106811523,3.69930362701416,0.5167768001556396,0.7403469085693359,0.0708582773804664,#
0.1244267746806144,-8.709875106811523,3.69930362701416,0.1808107793331146,0.7953230738639832,0.069636583328247,#
0.2344966232776641,-9.186046600341797,3.5054850578308105,-0.5632011890411377,0.9822423458099364,0.123391143977642,#
0.4235295951366424,-9.96131992340088,3.684947013854981,-0.7941014170646667,1.132510781288147,0.1612636744976043,#
0.3278167247772217,-10.217352867126465,3.2207393646240234,-1.0176715850830078,1.3939534425735474,0.1918060332536697,#
0.0167497582733631,-9.71485996246338,2.033899307250977,-1.060430884361267,1.6321837902069092,0.2309002727270126,#
0.0167497582733631,-9.71485996246338,2.033899307250977,-1.0421053171157837,1.645622491836548,0.2687727808952331,#
-0.2991028428077698,-9.860822677612305,2.2707886695861816,-1.0592091083526611,1.5503302812576294,0.3371876776218414,#
-0.0023928226437419,-9.731609344482422,2.6632115840911865,-1.4122787714004517,1.3841798305511477,0.3310791850090027,#
-0.0861416235566139,-8.879764556884766,0.6675975918769836,-1.6993770599365234,1.327981948852539,0.310310423374176,#
-0.4331009089946747,-10.037891387939451,0.1962114423513412,-1.9498244524002075,0.9932376146316528,0.2956500649452209,#
-0.4331009089946747,-10.037891387939451,0.1962114423513412,-1.9534894227981567,0.8698464632034302,0.2748812437057495,#
0.138783723115921,-10.420742988586426,0.2943171858787536,-1.6517308950424194,0.8722898364067078,0.2162399291992187,#
-0.0334995165467262,-10.1336030960083,-0.0598205626010894,-1.2546802759170532,0.8686248064041138,0.2162399291992187,#
-0.1986042857170105,-10.183852195739746,-0.5120640397071838,-1.086086392402649,0.8050966858863831,0.2247917801141739,#
-0.1483550071716308,-9.611968994140623,-1.0839486122131348,-0.9626952409744264,0.7721109390258789,0.287098228931427,#
-0.3756731450557709,-9.791430473327637,-1.239482045173645,-1.021336555480957,0.7513421177864075,0.2724378705024719,#
-0.3756731450557709,-9.791430473327637,-1.239482045173645,-1.0787562131881714,0.7195780277252197,0.2675510942935943,#
-0.6245267391204834,-9.844072341918944,-0.9308080077171326,-1.0335536003112793,0.5094466209411621,0.2028012871742248,#
-0.5982056856155396,-9.580862045288086,-1.1006983518600464,-0.8991671204566956,0.2687727808952331,0.1734806150197982,#
-0.9427721500396729,-9.643074989318848,-1.1006983518600464,-0.7953230738639832,0.1747023165225982,0.1918060332536697,#
-0.6173481941223145,-9.844072341918944,-1.2059825658798218,-0.5424323678016663,0.0109952501952648,0.152711808681488,#
-0.6173481941223145,-9.844072341918944,-1.2059825658798218,-0.4080459475517273,-0.0158820282667875,0.1514901220798492,#
-0.6891329884529114,-9.920641899108888,-2.0554347038269043,-0.1624853760004043,0.0329857505857944,0.1160609796643257,#
-0.7776673436164856,-9.796216011047363,-1.983649969100952,0.007330167107284,0.123391143977642,0.1050657257437706,#
-1.0528419017791748,-9.906286239624023,-1.2681961059570312,0.0561979450285434,0.1563768982887268,0.0855186134576797,#
-1.1892328262329102,-9.93978500366211,-0.8087739944458008,0.0977355539798736,0.1209477484226226,0.0928487852215766,#
-1.1892328262329102,-9.93978500366211,-0.8087739944458008,0.130721315741539,0.0024433890357613,0.1136175915598869,#
-1.2323036193847656,-9.81057357788086,-0.851844847202301,0.1698155403137207,-0.0464243926107883,0.1172826737165451,#
-1.1748759746551514,-9.726823806762695,-1.1102697849273682,0.2809897363185882,-0.1026223376393318,0.1148392781615257,#
-1.2969098091125488,-9.650253295898438,-1.3639088869094849,0.3213056325912475,-0.0855186134576797,0.0720799788832664,#
-1.411765456199646,-9.370293617248535,-1.1341978311538696,0.3860554695129394,-0.0708582773804664,0.0097735561430454,#
-1.361515998840332,-9.44447135925293,-1.0671988725662231,0.4031591713428497,-0.0940704718232154,-0.0452026948332786,#
-1.361515998840332,-9.44447135925293,-1.0671988725662231,0.3750602006912231,-0.1209477484226226,-0.0561979450285434,#
-1.2825528383255005,-9.650253295898438,-0.7824530005455017,0.3225273489952087,-0.1869192570447921,-0.0830752253532409,#
-1.3112668991088867,-9.753145217895508,-0.6867401003837585,0.2956500649452209,-0.2272351831197738,-0.1087308079004287,#
-1.325623631477356,-9.949356079101562,-0.4953142702579498,0.2944283783435821,-0.2492256760597229,-0.1172826737165451,#
-1.3375877141952517,-9.951749801635742,-0.2823530733585357,0.3261924386024475,-0.2626643180847168,-0.1246128380298614,#
-1.3375877141952517,-9.951749801635742,-0.2823530733585357,0.333522617816925,-0.2541124522686004,-0.1099525094032287,#
-1.3375877141952517,-10.01874828338623,-0.064606212079525,0.3555130958557129,-0.2516690790653229,-0.0806318372488021,#
-1.3375877141952517,-10.080962181091309,0.2177468687295913,0.388498842716217,-0.256555825471878,-0.0342074446380138,#
-1.2729815244674685,-10.24606704711914,0.2081755697727203,0.388498842716217,-0.2736595571041107,-0.0219905003905296,#
-1.3495519161224363,-10.423135757446287,0.4043869972229004,0.411711037158966,-0.3323009014129638,-0.0207688063383102,#
-1.2681961059570312,-10.360921859741213,0.5599204897880554,0.5399889945983887,-0.4141544103622436,-0.0268772784620523,#
-1.2681961059570312,-10.360921859741213,0.5599204897880554,0.6120689511299133,-0.4410317242145538,-0.0439810007810592,#
-1.3399806022644043,-10.549955368041992,0.7034898400306702,0.7220214009284973,-0.4911211729049682,-0.0513111688196659,#
-1.380658507347107,-10.380064964294434,1.241874933242798,0.8466342687606812,-0.5204418301582336,-0.0244338884949684,#
-1.3375877141952517,-10.277173042297363,1.6677974462509155,0.9064972996711732,-0.5351021885871887,-0.0134386392310261,#
-1.430907964706421,-10.415956497192385,2.050648927688598,0.9785772562026978,-0.554649293422699,-0.0085518611595034,#
-1.430907964706421,-10.415956497192385,2.050648927688598,1.0017894506454468,-0.5619794726371765,0.0012216945178806,#
-1.34476637840271,-10.344171524047852,2.392822742462158,1.0054545402526855,-0.5632011890411377,0.0171037223190069,#
-1.3040882349014282,-10.348958015441896,2.4741785526275635,0.9688037633895874,-0.4923428893089294,0.0280989725142717,#
-1.3351951837539673,-10.188638687133787,2.5914268493652344,0.9480348825454712,-0.4520269632339477,0.040315918624401,#
-1.1892328262329102,-10.064212799072266,2.854637384414673,0.9064972996711732,-0.3249707520008087,0.0806318372488021,#
-1.1892328262329102,-10.064212799072266,2.854637384414673,0.8906152844429016,-0.1747023165225982,0.1221694499254226,#
-1.179661512374878,-9.839285850524902,2.974278450012207,0.8393040895462036,-0.1026223376393318,0.1649287492036819,#
-1.06480610370636,-9.91107177734375,2.926422357559204,0.7941014170646667,0.0561979450285434,0.2089097648859024,#
-1.0001999139785769,-9.966106414794922,3.194417953491211,0.8099834322929382,0.1490467190742492,0.2272351831197738,#
-1.0815558433532717,-9.741181373596191,3.3930225372314453,0.8845068216323853,0.3200839459896087,0.2553341388702392,#
-0.9930213689804076,-9.547362327575684,3.4097721576690674,0.919935941696167,0.5118899941444397,0.2883199155330658,#
-0.9930213689804076,-9.547362327575684,3.4097721576690674,0.9040539264678956,0.605960488319397,0.2956500649452209,#
-1.0911270380020142,-9.657432556152344,3.601198196411133,0.7611156702041626,0.7831061482429504,0.2968717515468597,#
-1.160519003868103,-9.17886734008789,3.3858442306518555,0.4508052766323089,0.9187142252922058,0.2932066619396209,#
-1.1389836072921753,-9.004191398620605,3.13220477104187,0.2321219593286514,0.9700254201889038,0.287098228931427,#
-1.1030912399291992,-8.973085403442383,3.0556347370147705,-0.178367406129837,1.068982720375061,0.2712161839008331,#
-1.1030912399291992,-8.973085403442383,3.0556347370147705,-0.2968717515468597,1.1361758708953855,0.258999228477478,#
-1.244267821311951,-9.21715259552002,2.651247262954712,-0.3872771561145782,1.2473500967025757,0.2626643180847168,#
-1.3328022956848145,-9.458827018737791,2.447857618331909,-0.3518480062484741,1.3560807704925537,0.2834331095218658,#
-1.244267821311951,-9.69332504272461,2.251646041870117,-0.2980934381484985,1.397618532180786,0.2932066619396209,#
-1.4572290182113647,-9.442078590393066,2.0745770931243896,-0.1172826737165451,1.4623682498931885,0.365286648273468,#
-1.4452648162841797,-9.784252166748049,1.7922240495681765,-0.0048867780715227,1.4269392490386963,0.2834331095218658,#
-1.4452648162841797,-9.784252166748049,1.7922240495681765,0.0488677769899368,1.408613681793213,0.3274141252040863,#
-1.794616937637329,-9.238687515258787,1.8927226066589355,0.0146603342145681,1.381736397743225,0.2480039745569229,#
-1.9453648328781128,-9.305686950683594,2.1750757694244385,0.0146603342145681,1.359745979309082,0.3078669905662536,#
-2.287538528442383,-9.22433090209961,2.3234307765960693,0.007330167107284,1.3072130680084229,0.2541124522686004,#
-2.4502503871917725,-9.15733242034912,2.493321180343628,0.1050657257437706,1.2131426334381104,0.2528907656669616,#
-2.4502503871917725,-9.15733242034912,2.493321180343628,0.2064663618803024,1.180156946182251,0.2186833024024963,#
-2.5842485427856445,-9.186046600341797,2.2947168350219727,0.3090887069702148,1.099524974822998,0.1820324808359146,#
-2.462214469909668,-9.377471923828123,1.660618782043457,0.2162399291992187,1.0726476907730105,0.1246128380298614,#
-2.589033842086792,-9.518648147583008,1.588834285736084,0.1331647038459777,1.0592091083526611,0.1038440242409706,#
-2.801995038986206,-9.384650230407717,1.7754744291305542,-0.0684148892760276,1.0274450778961182,0.0806318372488021,#
-2.801995038986206,-9.384650230407717,1.7754744291305542,-0.152711808681488,1.0005677938461304,0.0769667476415634,#
-2.885744333267212,-9.494720458984377,1.7874385118484497,-0.2199050188064575,0.9138274788856506,0.1160609796643257,#
-3.005385160446167,-9.58325481414795,1.998006820678711,-0.1319430023431778,0.7611156702041626,0.1453816443681717,#
-2.988635540008545,-9.889535903930664,1.7874385118484497,-0.0268772784620523,0.6890356540679932,0.1673721522092819,#
-2.9623143672943115,-9.789037704467772,0.8733802437782288,0.128277912735939,0.6267292499542236,0.1466033309698104,#
-2.9623143672943115,-9.652647018432615,0.4498506784439087,0.1270562261343002,0.652384877204895,0.1453816443681717,#
-2.9623143672943115,-9.652647018432615,0.4498506784439087,0.0757450610399246,0.6878139972686768,0.1209477484226226,#
-3.098705530166626,-9.494720458984377,0.5431707501411438,-0.0390942245721817,0.6890356540679932,0.1197260618209838,#
-3.352344274520874,-9.501898765563965,0.8350951075553894,-0.1368297785520553,0.5717529654502869,0.1343863904476165,#
-3.304487943649292,-9.580862045288086,0.3996013700962066,-0.1441599577665329,0.4862344264984131,0.1502684205770492,#
-3.304487943649292,-9.485149383544922,-0.3086740970611572,-0.1246128380298614,0.3506263196468353,0.1588202863931656,#
-3.304487943649292,-9.485149383544922,-0.3086740970611572,-0.1038440242409706,0.3188622593879699,0.1685938388109207,#
-3.3714869022369385,-9.60478973388672,-0.7776673436164856,-0.0708582773804664,0.2761029601097107,0.1404948681592941,#
-3.2829525470733643,-9.707681655883787,-1.0863415002822876,-0.0659715011715889,0.2199050188064575,0.1453816443681717,#
-3.4097721576690674,-9.564111709594728,-0.8470591902732849,-0.100178949534893,0.1600419729948043,0.1453816443681717,#
-3.603590488433838,-9.621540069580078,-0.6747759580612183,-0.1722589135169983,-0.0598630309104919,0.1918060332536697,#
-3.603590488433838,-9.621540069580078,-0.6747759580612183,-0.1673721522092819,-0.2834331095218658,0.2064663618803024,#
-3.608376264572144,-9.774680137634276,-0.97148597240448,-0.1148392781615257,-0.3713951408863067,0.2211267054080963,#
-3.603590488433838,-9.781858444213867,-1.3040882349014282,0.0134386392310261,-0.4642439186573028,0.2260134816169738,#
-3.5054850578308105,-9.736394882202148,-1.2059825658798218,0.0794101431965828,-0.5033381581306458,0.2260134816169738,#
-3.601198196411133,-9.781858444213867,-1.179661512374878,0.1270562261343002,-0.574196457862854,0.2504473626613617,#
-3.426522016525269,-9.805787086486816,-0.1603191047906875,0.130721315741539,-0.7244647741317749,0.2492256760597229,#
-3.426522016525269,-9.805787086486816,-0.1603191047906875,0.1637070626020431,-0.813648521900177,0.2773246467113495,#
-3.658626079559326,-10.183852195739746,-0.4091726541519165,0.21135313808918,-0.9382613897323608,0.3188622593879699,left
-3.728017807006836,-10.090532302856444,-1.124626636505127,0.2040229737758636,-0.9871291518211364,0.3823903799057007,left
-3.510270833969116,-10.03549861907959,-0.9978070855140686,0.1502684205770492,-1.021336555480957,0.4153760969638824,left
-3.235095977783203,-9.90867805480957,-1.306481122970581,-0.0610847249627113,-1.0848647356033323,0.4263713657855987,left
-3.235095977783203,-9.90867805480957,-1.306481122970581,-0.2553341388702392,-1.148392915725708,0.4153760969638824,left
-2.871387243270874,-10.272387504577637,-2.1415762901306152,-0.6572716236114502,-1.5246747732162476,0.333522617816925,left
-2.6608188152313232,-10.870593070983888,-2.0865414142608643,-0.7501204013824463,-2.117196559906006,0.3787252902984619,left
-2.297109842300415,-10.77727222442627,-2.71346116065979,-0.7171346545219421,-2.399407863616944,0.4104893505573272,left
-2.050648927688598,-10.631311416625977,-2.7014968395233154,-0.5644228458404541,-2.88442063331604,0.494786262512207,left
-1.112662434577942,-10.707880973815918,-2.1128623485565186,-0.3530696928501129,-3.3743200302124023,0.63283771276474,left
-1.112662434577942,-10.707880973815918,-2.1128623485565186,-0.3591781854629516,-3.6492013931274414,0.726908266544342,left
-0.7657032012939453,-10.77488136291504,-1.4189438819885254,-0.4727957546710968,-4.299142837524414,0.8539644479751587,left
-0.3517449200153351,-10.767702102661133,0.0789631456136703,-0.5436540246009827,-4.74506139755249,0.8906152844429016,left
-0.2560320198535919,-9.860822677612305,1.3950155973434448,-0.5668662190437317,-5.900784492492676,1.1520578861236572,left
0.6125625967979431,-9.920641899108888,2.8043880462646484,-0.2309002727270126,-6.975875854492188,1.211920976638794,left
0.6125625967979431,-9.920641899108888,2.8043880462646484,0.0671931952238082,-7.383921146392822,1.1935955286026,left
1.1270195245742798,-9.81057357788086,4.0797624588012695,0.5619794726371765,-8.147480964660645,0.8881718516349792,left
1.7850456237792969,-9.698110580444336,4.328616142272949,0.818535327911377,-8.39426326751709,1.060430884361267,left
2.6799612045288086,-10.121639251708984,4.275973796844482,1.1337324380874634,-8.579960823059082,0.8551861643791199,left
3.828516006469727,-9.98285675048828,3.464807271957397,1.5002408027648926,-8.615389823913574,0.9883508682250975,left
3.828516006469727,-9.98285675048828,3.464807271957397,1.9974703788757324,-8.267206192016602,0.6682668924331665,left
6.728617191314697,-9.860822677612305,4.110869407653809,2.537459373474121,-7.708892345428467,0.3823903799057007,left
8.461020469665527,-8.260024070739746,4.833501815795898,3.795804738998413,-5.682101249694824,-0.1869192570447921,left
7.573283672332764,-2.426322221755981,4.125226020812988,3.958290100097656,-4.567915916442871,-0.2883199155330658,left
7.190432548522949,-0.2919243574142456,4.902893543243408,2.75369930267334,-3.144641637802124,0.1185043603181839,left
6.247659683227539,-1.2969098091125488,5.984449863433838,0.9846857786178588,-2.0793240070343018,0.2064663618803024,left
6.247659683227539,-1.2969098091125488,5.984449863433838,0.3921639025211334,-1.6529526710510254,0.1856975704431533,left
5.632704257965088,-3.4480574131011963,7.22153902053833,-0.1172826737165451,-1.211920976638794,0.1087308079004287,left
5.606383323669434,-4.823930263519287,7.984848976135254,-0.1954711079597473,-0.8490777015686035,0.0427593067288398,left
5.168497085571289,-5.520241737365723,8.350951194763184,-0.178367406129837,-0.7379034161567688,0.0415376126766204,left
4.692325115203857,-5.824130058288574,8.111669540405273,-0.0219905003905296,-0.522885262966156,-0.0708582773804664,left
4.692325115203857,-5.824130058288574,8.111669540405273,-0.007330167107284,-0.4654656052589416,-0.1172826737165451,left
4.457828521728516,-5.783452033996582,8.343771934509277,-0.0122169442474842,-0.471574068069458,-0.0904053896665573,left
4.275973796844482,-5.831308364868164,8.015955924987793,-0.1380514800548553,-0.4679089784622192,-0.0280989725142717,left
4.201796531677246,-6.087340831756592,7.649853706359863,-0.2602209150791168,-0.4446967840194702,-0.007330167107284,left
4.132404804229736,-6.719045639038086,7.788637638092041,-0.4813476204872131,-0.2993151545524597,0.0867403075098991,left
4.132404804229736,-6.719045639038086,7.788637638092041,-0.5680879354476929,-0.1038440242409706,0.1111741960048675,left
3.759124279022217,-7.3363938331604,7.587640762329102,-0.5644228458404541,-0.0232121963053941,0.100178949534893,#
3.404986619949341,-7.539783954620361,7.197610855102539,-0.5375455617904663,0.1429382413625717,0.0390942245721817,#
3.404986619949341,-7.652246475219727,6.695117950439453,-0.5143333673477173,0.2162399291992187,0.007330167107284,#
3.615554809570313,-7.405786037445068,6.695117950439453,-0.5522059202194214,0.3494046330451965,-0.0048867780715227,#
3.421736478805542,-7.042076587677002,6.441478729248047,-0.6768187284469604,0.4874561131000519,-0.007330167107284,#
3.421736478805542,-7.042076587677002,6.441478729248047,-0.7452336549758911,0.546097457408905,0.0171037223190069,#
3.16331148147583,-6.9511494636535645,5.879165172576904,-0.9956809878349304,0.6291726231575012,0.0586413368582725,#
3.292524099349976,-7.099504470825195,5.852844715118408,-1.1850436925888062,0.7061393857002258,0.0671931952238082,#
3.541377305984497,-7.53021240234375,5.905486583709717,-1.2168077230453491,0.7354600429534912,0.0671931952238082,#
3.25663161277771,-7.747959613800049,5.572883605957031,-1.1654964685440063,0.8502993583679199,0.0329857505857944,#
3.25663161277771,-7.747959613800049,5.572883605957031,-1.0897514820098877,0.910162389278412,0.007330167107284,#
2.96949315071106,-7.439285278320312,4.926821708679199,-0.9700254201889038,0.9944592714309692,-0.0720799788832664,#
3.036492109298706,-7.434500217437744,4.730610370635986,-0.9504783153533936,1.0384403467178345,-0.175924003124237,#
2.991028308868408,-7.168896198272705,4.517649173736572,-0.998124361038208,1.0579874515533447,-0.2076880484819412,#
2.7900311946868896,-6.821937084197998,4.110869407653809,-1.1777135133743286,1.0714260339736938,-0.2370087206363678,#
2.8283162117004395,-6.881758213043213,3.799802303314209,-1.3890666961669922,1.0384403467178345,-0.2577775418758392,#
2.8283162117004395,-6.881758213043213,3.799802303314209,-1.4648116827011108,1.0201148986816406,-0.2687727808952331,#
2.902493953704834,-7.34357213973999,3.900300979614258,-1.5320048332214355,0.9553651213645936,-0.3347443044185638,#
2.833101987838745,-7.604390144348144,4.1036906242370605,-1.5161229372024536,0.9321528673171996,-0.3713951408863067,#
2.849851608276367,-7.549355506896973,3.778266668319702,-1.492910623550415,0.8441908955574036,-0.494786262512207,#
2.857030153274536,-7.384250640869141,3.2207393646240234,-1.4635900259017944,0.7941014170646667,-0.5803048610687256,#
2.857030153274536,-7.384250640869141,3.2207393646240234,-1.4513731002807615,0.785549521446228,-0.6584933400154114,#
2.6009981632232666,-7.424928665161133,2.943171739578247,-1.4489295482635498,0.7354600429534912,-0.7757760286331177,#
2.414358139038086,-7.424928665161133,3.28773832321167,-1.3646327257156372,0.6890356540679932,-0.9382613897323608,#
2.2707886695861816,-7.671389579772949,3.6251261234283447,-1.2644537687301636,0.6597149968147278,-1.0628741979599,#
2.3258235454559326,-7.762316703796387,3.4480574131011963,-0.9944592714309692,0.5876350998878479,-1.3059914112091064,#
2.3258235454559326,-7.762316703796387,3.4480574131011963,-0.8319739699363708,0.549762487411499,-1.4306042194366455,#
2.687139749526977,-8.312665939331055,3.022134780883789,-0.3823903799057007,0.5070031881332397,-1.6834949254989624,#
2.900100946426392,-8.164310455322266,2.5866410732269287,-0.1466033309698104,0.5766398310661316,-1.9290555715560915,#
2.756531953811645,-7.733603000640869,2.4813570976257324,-0.0904053896665573,0.6022953391075134,-1.987696886062622,#
3.1728827953338623,-7.635497093200684,2.5363922119140625,-0.1026223376393318,0.5974085927009583,-2.036564826965332,#
3.235095977783203,-7.274180889129639,2.682354211807251,-0.2993151545524597,0.5790832042694092,-2.1098663806915283,#
3.235095977783203,-7.274180889129639,2.682354211807251,-0.4104893505573272,0.5277720093727112,-2.1575124263763428,#
3.706482172012329,-7.513463020324707,2.756531953811645,-0.5045598149299622,0.4202629029750824,-2.224705696105957,#
4.517649173736572,-8.281558990478516,2.830709218978882,-0.6707102656364441,0.3176405727863312,-2.2894556522369385,#
4.685146808624268,-7.640282154083252,2.531606435775757,-0.7574505805969238,0.2846547961235046,-2.3236629962921143,#
4.840680122375488,-7.209574222564697,2.1894328594207764,-0.891836941242218,0.2724378705024719,-2.337101697921753,#
4.840680122375488,-7.209574222564697,2.1894328594207764,-0.971247136592865,0.2663294076919555,-2.3236629962921143,#
4.931607723236084,-6.73818826675415,1.856830358505249,-1.148392915725708,0.2846547961235046,-2.319998025894165,#
5.656632423400879,-7.420143127441406,1.660618782043457,-1.1581664085388184,0.3078669905662536,-2.3969645500183105,#
6.666403770446777,-8.200202941894531,1.8783657550811768,-1.1752701997756958,0.3066453039646148,-2.4519410133361816,#
6.329016208648682,-7.403393745422363,1.7682960033416748,-1.0201148986816406,0.3261924386024475,-2.553341627120972,#
6.329016208648682,-7.403393745422363,1.7682960033416748,-0.910162389278412,0.2528907656669616,-2.577775239944458,#
6.443871021270752,-6.396015167236328,1.3351951837539673,-1.0286667346954346,0.1795890927314758,-2.5961008071899414,#
6.824329853057861,-5.345565319061279,1.0289137363433838,-1.189930438995361,0.0904053896665573,-2.635195016860962,#
7.8795647621154785,-5.357529640197754,0.7585247755050659,-1.2070342302322388,0.0794101431965828,-2.647412061691284,#
9.109475135803224,-6.137589931488037,0.9571290016174316,-1.3072130680084229,0.0769667476415634,-2.679175853729248,#
9.91585636138916,-6.807580471038818,1.2514461278915403,-1.2497934103012085,0.0390942245721817,-2.76347279548645,#
9.91585636138916,-6.807580471038818,1.2514461278915403,-1.1227372884750366,0.0085518611595034,-2.817227363586426,#
10.25802993774414,-6.994220733642578,1.294516921043396,-0.8991671204566956,-0.0891837030649185,-2.867316722869873,#
10.454241752624512,-5.804987907409668,1.112662434577942,-0.7427902817726135,-0.155155211687088,-2.7756898403167725,#
11.15773105621338,-5.345565319061279,1.1700903177261353,-0.6022953391075134,-0.1661504507064819,-2.7036099433898926,#
11.387442588806152,-5.259423732757568,1.2227323055267334,-0.4556920528411865,-0.2687727808952331,-2.597322702407837,#
11.387442588806152,-5.259423732757568,1.2227323055267334,-0.4251496791839599,-0.3054236173629761,-2.533794403076172,#
11.688939094543455,-5.082355499267578,1.447657585144043,-0.3811686933040619,-0.388498842716217,-2.4372804164886475,#
11.86122226715088,-4.816751956939697,1.5457634925842283,-0.2345653474330902,-0.4556920528411865,-2.3016724586486816,#
11.703295707702637,-4.603790760040283,1.710868239402771,-0.1368297785520553,-0.4813476204872131,-2.2320358753204346,#
11.57408332824707,-4.278366565704346,1.739582061767578,0.0048867780715227,-0.5473191142082214,-2.093984365463257,#
11.47836971282959,-3.842873096466065,1.4739787578582764,0.0867403075098991,-0.5644228458404541,-1.9583762884140012,#
11.47836971282959,-3.842873096466065,1.4739787578582764,0.0916270837187767,-0.5839699506759644,-1.8691924810409544,#
11.30130100250244,-3.541377305984497,1.1341978311538696,0.0635281130671501,-0.53143709897995,-1.6700563430786133,#
11.17926788330078,-3.2757742404937744,1.0695916414260864,0.0549762547016143,-0.3738385140895843,-1.4159438610076904,#
10.925628662109377,-3.294916868209839,1.1485549211502075,0.0598630309104919,-0.2907632887363434,-1.2864443063735962,#
10.707880973815918,-3.122633695602417,1.3782659769058228,-0.0439810007810592,-0.1710372269153595,-1.0188932418823242,#
10.707880973815918,-3.122633695602417,1.3782659769058228,-0.1172826737165451,-0.1185043603181839,-0.9236010909080504,#
10.52841854095459,-2.864208698272705,1.3375877141952517,-0.3017585575580597,-0.0268772784620523,-0.6988092660903931,#
10.1336030960083,-2.567498683929444,1.2083754539489746,-0.5082249045372009,0.0427593067288398,-0.4935645759105682,#
9.958927154541016,-2.553141593933105,1.0911270380020142,-0.605960488319397,0.0610847249627113,-0.3738385140895843,#
9.863215446472168,-2.641676187515259,1.160519003868103,-0.7721109390258789,0.1026223376393318,-0.1893626451492309,#
9.863215446472168,-2.641676187515259,1.160519003868103,-0.813648521900177,0.1123958900570869,-0.1038440242409706,#
9.77946662902832,-2.4909284114837646,1.196411371231079,-0.8576295375823975,0.155155211687088,0.0268772784620523,#
9.760323524475098,-2.548356056213379,1.1724830865859983,-0.8893935680389404,0.1722589135169983,0.1319430023431778,#
9.7005033493042,-2.2947168350219727,1.0289137363433838,-0.9089407324790956,0.1795890927314758,0.178367406129837,#
9.585646629333496,-2.4047868251800537,0.9930213689804076,-0.8796200752258301,0.2247917801141739,0.2541124522686004,#
9.473184585571287,-2.266003131866455,0.9547362923622132,-0.8380824327468872,0.2687727808952331,0.3274141252040863,#
9.473184585571287,-2.266003131866455,0.9547362923622132,-0.8148701786994934,0.282211422920227,0.3567348122596741,#
9.556933403015137,-2.242074966430664,0.8925228118896484,-0.7745543122291565,0.2797680497169494,0.4043808877468109,#
9.566505432128906,-2.242074966430664,0.9451649785041808,-0.6829272508621216,0.2761029601097107,0.4434750974178314,#
9.611968994140623,-2.1583259105682373,1.0839486122131348,-0.6279509663581848,0.2638860046863556,0.4581354260444641,#
9.597611427307127,-2.0793628692626958,0.935593605041504,-0.5008947253227234,0.2309002727270126,0.4935645759105682,#
9.597611427307127,-2.0793628692626958,0.935593605041504,-0.4471401870250702,0.21135313808918,0.5057815313339233,#
9.78664493560791,-2.09850549697876,1.0217353105545044,-0.3323009014129638,0.1673721522092819,0.5192201733589172,#
9.89432144165039,-2.1367905139923096,1.2131611108779907,-0.1905843466520309,0.1331647038459777,0.5399889945983887,#
10.042675971984863,-2.4047868251800537,1.356730580329895,-0.0965138673782348,0.1197260618209838,0.5522059202194214,#
9.745966911315918,-2.2061824798583984,1.234696388244629,0.0610847249627113,0.1185043603181839,0.6084038615226746,#
9.719645500183104,-2.0817556381225586,1.057627558708191,0.1368297785520553,0.1062874197959899,0.6487197875976562,#
9.719645500183104,-2.0817556381225586,1.057627558708191,0.1649287492036819,0.1380514800548553,0.6560499668121338,#
9.51386260986328,-2.057827472686768,1.2011969089508057,0.2235700935125351,0.1710372269153595,0.6743753552436829,#
9.667003631591797,-1.804188132286072,1.2921242713928225,0.2272351831197738,0.1710372269153595,0.6743753552436829,#
9.839285850524902,-2.3401806354522705,1.5170495510101318,0.2712161839008331,0.1502684205770492,0.6658235192298889,#
9.635896682739258,-2.3234307765960693,1.4500504732131958,0.2932066619396209,0.130721315741539,0.6548282504081726,#
9.635896682739258,-2.3234307765960693,1.4500504732131958,0.3029802441596985,0.123391143977642,0.6646018028259277,#
9.533005714416504,-2.227717876434326,1.239482045173645,0.2272351831197738,0.1258345395326614,0.6963658928871155,#
9.382257461547852,-2.531606435775757,1.3136597871780396,0.1514901220798492,0.1734806150197982,0.7098045349121094,#
9.276973724365234,-2.5842485427856445,1.442872166633606,0.1514901220798492,0.1893626451492309,0.7195780277252197,#
9.26740264892578,-2.4095723628997803,1.660618782043457,0.1356080919504165,0.1747023165225982,0.7049177289009094,#
9.26740264892578,-2.4095723628997803,1.660618782043457,0.1404948681592941,0.152711808681488,0.6817055344581604,#
9.657432556152344,-3.3379876613616943,1.765903115272522,0.2137965410947799,0.1014006435871124,0.6536065340042114,#
9.58325481414795,-3.500699520111084,1.6582260131835938,0.2699944972991943,0.0904053896665573,0.6951441764831543,#
9.803394317626951,-3.268595933914185,1.3471590280532837,0.2137965410947799,0.1062874197959899,0.7501204013824463,#
9.7938232421875,-3.828516006469727,1.4883356094360352,0.0977355539798736,0.2211267054080963,0.8820634484291077,#
9.69332504272461,-3.854837417602539,2.124826431274414,0.007330167107284,0.3090887069702148,1.0176715850830078,#
9.69332504272461,-3.854837417602539,2.124826431274414,-0.0598630309104919,0.3127537965774536,1.044548749923706,#
9.72921657562256,-3.998406410217285,2.476571559906006,-0.2125748395919799,0.235787034034729,1.0714260339736938,#
9.559326171875,-4.8191447257995605,2.4646072387695312,-0.2028012871742248,0.1685938388109207,1.0738694667816162,#
9.439685821533203,-4.685146808624268,2.124826431274414,-0.1710372269153595,0.1612636744976043,1.0738694667816162,#
9.138189315795898,-4.572684288024902,1.7012970447540283,-0.0708582773804664,0.2150182276964187,1.1581664085388184,#
9.138189315795898,-4.572684288024902,1.7012970447540283,-0.1014006435871124,0.2602209150791168,1.1984822750091553,#
8.843873023986816,-4.3310089111328125,1.7324036359786987,-0.2687727808952331,0.3665083348751068,1.2143642902374268,#
8.609375953674316,-4.407578945159912,2.196611166000366,-0.4202629029750824,0.42270627617836,1.1667182445526123,#
9.006584167480469,-5.127819538116455,3.060420036315918,-0.4532486498355865,0.3836120665073395,1.1545013189315796,#
9.611968994140623,-5.982056617736816,3.34995174407959,-0.4581354260444641,0.3042019307613373,1.1813786029815674,#
9.611968994140623,-5.982056617736816,3.34995174407959,-0.5656445622444153,0.3029802441596985,1.3426421880722046,#
9.528220176696776,-5.706881999969482,2.8809585571289062,-0.6450546979904175,0.3860554695129394,1.4550381898880005,#
9.844072341918944,-5.934200286865234,3.785445213317871,-1.2913310527801514,0.5693095922470093,1.666391372680664,#
10.97348403930664,-7.111469268798828,5.8265228271484375,-1.706707239151001,0.7330166697502136,1.8093295097351076,#
11.057233810424805,-9.262616157531738,5.221138954162598,-2.059777021408081,0.9162708520889282,2.2295923233032227,#
10.607381820678713,-9.518648147583008,4.2137603759765625,-2.208823680877685,1.336533784866333,2.5851054191589355,#
10.607381820678713,-9.518648147583008,4.2137603759765625,-2.3236629962921143,1.5967546701431274,2.7097182273864746,#
9.592825889587402,-9.066404342651367,3.967299938201904,-2.762251377105713,1.977923393249512,3.009033679962158,#
8.547162055969238,-8.843873023986816,3.912264823913574,-3.2558157444000244,2.1562907695770264,3.6027772426605225,#
7.216752529144287,-9.379864692687988,2.8809585571289062,-3.6492013931274414,2.3041157722473145,4.07801628112793,#
6.620940208435059,-9.592825889587402,2.4358932971954346,-4.43108606338501,2.3126676082611084,4.550811767578125,#
6.620940208435059,-9.592825889587402,2.4358932971954346,-4.730401039123535,2.423841953277588,4.909989833831787,#
3.7328033447265625,-10.066605567932127,1.3351951837539673,-4.742617607116699,2.3529837131500244,4.343123912811279,#
3.089133977890014,-9.803394317626951,1.0743772983551023,-4.30402946472168,2.1074230670928955,4.8354668617248535,#
3.3858442306518555,-11.856435775756836,1.0241280794143677,-3.685852289199829,2.1733944416046143,4.681532859802246,#
2.232503652572632,-10.669595718383787,0.6293123364448547,-2.37741756439209,2.03412127494812,3.994940757751465,#
1.7252250909805298,-7.491927623748779,-0.5599204897880554,-1.0054545402526855,1.931498885154724,3.7970263957977295,#
1.7252250909805298,-7.491927623748779,-0.5599204897880554,-0.5070031881332397,1.8801878690719604,3.636984348297119,#
1.2131611108779907,-7.130610942840576,-1.227518081665039,0.1062874197959899,1.7824522256851196,3.316900491714477,#
1.4811571836471558,-7.338787078857422,-2.8666017055511475,0.3286358118057251,1.7286977767944336,2.9845995903015137,#
0.5862415432929993,-7.965706348419189,-3.622733592987061,0.7623373866081238,1.4623682498931885,2.7695813179016118,#
0.0933200791478157,-9.626325607299805,-3.747160196304321,1.9571545124053955,0.2785463333129883,2.525242567062378,#
0.0933200791478157,-9.626325607299805,-3.747160196304321,2.6657373905181885,-0.3897205293178558,2.423841953277588,#
0.1890329867601394,-9.968499183654783,-5.182853698730469,4.330906867980957,-1.0970816612243652,2.0096874237060547,#
-0.5934200286865234,-10.353742599487305,-5.663811206817627,5.817708969116211,-1.51734459400177,1.5833160877227783,#
-0.4881358444690704,-9.844072341918944,-4.101297855377197,6.417561054229736,-1.6810516119003296,1.452594757080078,#
-1.2562319040298462,-7.594818592071533,-2.187039852142334,6.907460689544678,-1.8655275106430051,1.1496145725250244,#
-1.2562319040298462,-7.594818592071533,-2.187039852142334,7.044290065765381,-2.4165117740631104,1.0323318243026731,#
-1.239482045173645,-7.75753116607666,-1.0552347898483276,6.724206447601318,-2.7084968090057373,1.1019684076309204,#
-1.0695916414260864,-7.317252159118652,0.6987042427062988,6.1927690505981445,-3.182514190673828,0.6279509663581848,#
-0.9571290016174316,-5.515456199645996,0.7010970115661621,5.745628833770752,-3.451286792755127,0.767224133014679,#
-0.4929214715957641,-3.45045018196106,1.0911270380020142,4.853792667388916,-3.916752576828003,0.549762487411499,#
0.3110669553279876,-2.048256158828736,1.8759729862213133,4.0340352058410645,-4.016931533813477,0.0977355539798736,#
0.3110669553279876,-2.048256158828736,1.8759729862213133,3.693182468414306,-3.992497444152832,-0.0842969194054603,#
0.5886343717575073,-1.3854442834854126,2.057827472686768,3.022472381591797,-3.70539927482605,-0.0708582773804664,#
0.8590233325958252,-0.9619146585464478,3.345165967941284,2.6999447345733643,-3.6895172595977774,0.31641885638237,#
2.1272192001342773,-2.230110645294189,4.675575256347656,2.7097182273864746,-3.5917818546295166,0.2736595571041107,#
3.1728827953338623,-2.426322221755981,5.795416355133057,2.6999447345733643,-3.3633251190185547,-0.003665083553642,#
3.1728827953338623,-2.426322221755981,5.795416355133057,2.679175853729248,-3.274141311645508,-0.2528907656669616,#
3.0556347370147705,-1.5649060010910034,6.2189459800720215,2.605874300003052,-3.127537727355957,-0.0598630309104919,#
3.6681969165802,-1.581655740737915,6.709475040435791,2.262578248977661,-3.159301996231079,-0.1661504507064819,#
5.044069766998291,-2.155933380126953,8.523234367370605,2.108644723892212,-3.176405668258667,-0.2247917801141739,#
6.130411148071289,-2.493321180343628,9.276973724365234,2.140408754348755,-3.165410280227661,-0.2247917801141739,#
7.271787643432617,-2.0410776138305664,9.966106414794922,2.2234840393066406,-2.6975014209747314,0.0769667476415634,#
7.271787643432617,-2.0410776138305664,9.966106414794922,2.129413604736328,-2.418955087661743,0.1441599577665329,#
8.37727165222168,-1.935793399810791,11.526226997375488,1.786117434501648,-1.7653485536575315,0.2602209150791168,#
8.997013092041016,-1.5026925802230835,13.66062355041504,1.5967546701431274,-1.48802387714386,0.3481829464435577,#
9.521041870117188,1.964507341384888,15.163317680358888,1.0421053171157837,-0.813648521900177,0.522885262966156,#
9.69093132019043,3.706482172012329,15.290136337280272,0.0427593067288398,-0.0659715011715889,0.790436327457428,#
9.69093132019043,3.706482172012329,15.290136337280272,-0.7256865501403809,0.3555130958557129,0.8625163435935974,#
9.1716890335083,4.137190341949463,14.725430488586426,-2.1892764568328857,1.227802872657776,0.9492565989494324,#
8.350951194763184,3.242274522781372,13.107882499694824,-3.3144571781158447,2.0793240070343018,0.9761338829994202,#
7.649853706359863,0.2512463629245758,11.320443153381348,-3.735941648483277,2.5618932247161865,0.9284878373146056,#
6.539584159851074,-0.5144568681716919,9.90867805480957,-4.3467888832092285,3.633319616317749,0.8783983588218689,#
6.539584159851074,-0.5144568681716919,9.90867805480957,-4.555698871612549,4.525156497955322,0.7464553117752075,#
4.711467742919922,-1.5960125923156738,9.011369705200195,-4.811032772064209,4.881891250610352,0.726908266544342,#
4.084547996520996,-1.7898313999176023,8.38684368133545,-5.161659240722656,5.247177600860596,0.7757760286331177,#
3.3332018852233887,-3.345165967941284,5.458028793334961,-5.140890121459961,5.321701526641846,1.123958945274353,#
1.66301167011261,-3.943371772766113,2.861815929412842,-5.3155927658081055,5.8189311027526855,0.95169997215271,#
-0.0358923412859439,-2.258824586868286,1.4739787578582764,-6.208651065826416,5.878793716430664,1.0188932418823242,#
-0.0358923412859439,-2.258824586868286,1.4739787578582764,-6.564164638519287,5.95209550857544,1.413500428199768,#
-0.1555334776639938,-4.505684852600098,0.6508477926254272,-7.088271617889404,5.976529598236084,1.987696886062622,#
-0.8901299238204956,-6.819544315338135,-0.851844847202301,-7.087049961090088,6.058382987976074,2.1098663806915283,#
-2.122433662414551,-5.55852746963501,-2.4574286937713623,-7.284964084625244,6.062047958374023,2.040229797363281,#
-3.5270204544067383,-5.589633941650391,-1.797009825706482,-6.9013519287109375,5.773728370666504,2.036564826965332,#
-3.5270204544067383,-5.589633941650391,-1.797009825706482,-6.807281970977783,5.545271396636963,1.9449377059936523,#
-4.627718925476074,-7.042076587677002,-0.5742774605751038,-5.826260566711426,4.532486915588379,1.4428211450576782,#
-4.194617748260498,-6.017949104309082,-0.7034898400306702,-4.41520357131958,2.8880856037139893,1.100746750831604,#
-4.175475597381592,-6.936792850494385,-3.1441688537597656,-3.5563526153564453,2.233257532119751,0.6914790868759155,#
-4.19701099395752,-5.225924491882324,-5.824130058288574,-2.5594499111175537,1.5833160877227783,0.1331647038459777,#
-3.747160196304321,-4.716253280639648,-7.8819580078125,-2.4775965213775635,1.369519591331482,-0.1844758540391922,#
-3.747160196304321,-4.716253280639648,-7.8819580078125,-2.608317613601685,1.4159438610076904,-0.175924003124237,#
-2.452643394470215,-8.623733520507812,-8.635696411132812,-2.50813889503479,1.8349851369857788,-0.2761029601097107,#
-2.612962245941162,-10.437491416931152,-8.86780071258545,-1.8423151969909668,1.8264333009719849,-0.1087308079004287,#
-2.560320377349853,-10.382457733154297,-9.743573188781738,-1.5356699228286743,1.5112361907958984,-0.0012216945178806,#
-2.8211379051208496,-10.226923942565918,-10.849058151245115,-0.836860716342926,1.0958600044250488,0.2394521236419677,#
-2.8211379051208496,-10.226923942565918,-10.849058151245115,-0.5070031881332397,0.9590301513671876,0.2651077210903168,#
-3.4743783473968506,-9.865608215332031,-10.810771942138672,0.1979145109653473,0.6071821451187134,0.3457395434379577,#
-4.302295207977295,-8.74337387084961,-9.78664493560791,0.943148136138916,0.178367406129837,0.2015795856714248,#
-4.673182487487793,-8.341379165649414,-8.274380683898926,1.4257174730300903,-0.0818535313010215,0.0952921733260154,#
-4.780859470367432,-7.666603565216064,-6.9511494636535645,2.45927095413208,-0.4373666048049927,-0.2211267054080963,#
-4.780859470367432,-7.666603565216064,-6.9511494636535645,3.1202077865600586,-0.833195686340332,-0.4813476204872131,#
-4.632504463195801,-7.23589563369751,-6.33380126953125,3.3511078357696533,-1.1606097221374512,-0.6145123243331909,#
-4.278366565704346,-7.556533336639404,-5.283352375030518,3.568569660186768,-1.6224102973937988,-1.0824213027954102,#
-3.902693748474121,-9.458827018737791,-3.8835511207580566,3.8776583671569824,-1.900956630706787,-1.2302463054656982,#
-3.184847116470337,-11.45683479309082,-3.270988702774048,4.65709924697876,-2.484926700592041,-1.148392915725708,#
-3.1178479194641118,-10.992627143859863,-2.4047868251800537,5.679657459259033,-2.789128541946411,-1.3524158000946045,#
-3.1178479194641118,-10.992627143859863,-2.4047868251800537,5.870242118835449,-2.660850763320923,-1.3059914112091064,#
-2.5986053943634038,-9.978070259094238,-1.6677974462509155,6.411452770233154,-2.780576705932617,-1.132510781288147,#
-1.37587308883667,-8.48734188079834,-1.098305583000183,5.915444850921631,-2.7463691234588623,-1.610193371772766,#
-1.2059825658798218,-7.252645492553711,-0.1220339611172676,5.936213493347168,-2.704831600189209,-1.58942449092865,#
-1.244267821311951,-5.178067684173584,2.1056838035583496,4.267378807067871,-2.19782829284668,-1.0506572723388672,#
-1.244267821311951,-5.178067684173584,2.1056838035583496,3.513593435287476,-1.9339423179626465,-0.6670452356338501,#
-1.3160523176193235,-6.666403770446777,5.101497650146484,2.2784602642059326,-1.8191031217575075,0.178367406129837,#
-1.179661512374878,-9.147761344909668,6.104090690612793,2.0145742893218994,-1.538113355636597,-0.1954711079597473,#
-1.2490534782409668,-9.34875774383545,5.697310447692871,2.057333469390869,-1.413500428199768,-0.2223483920097351,#
-0.7010970115661621,-8.559126853942871,5.254639148712158,2.144073724746704,-1.2082558870315552,-0.1966928243637085,#
-0.7896314859390259,-7.592426776885986,5.848058700561523,1.955932855606079,-0.8148701786994934,-0.31641885638237,#
-0.7896314859390259,-7.592426776885986,5.848058700561523,1.8484238386154173,-0.6780403852462769,-0.3225273489952087,#
-1.2729815244674685,-6.908078193664551,6.0610198974609375,1.5674339532852173,-0.463022232055664,-0.2944283783435821,#
-1.4620146751403809,-6.642475128173828,5.702096462249756,1.0714260339736938,-0.4446967840194702,-0.0012216945178806,#
-1.0767701864242554,-6.92482852935791,6.029913425445557,0.7916580438613892,-0.499673068523407,0.0378725305199623,#
-1.0217353105545044,-7.197610855102539,6.005984783172607,0.4556920528411865,-0.4373666048049927,0.0464243926107883,#
-1.0217353105545044,-7.197610855102539,6.005984783172607,0.3750602006912231,-0.4214845895767212,0.0916270837187767,#
-0.7992027401924133,-7.561319828033447,6.52044153213501,0.3506263196468353,-0.4337015450000763,0.0916270837187767,#
-0.7226324081420898,-7.83410120010376,6.735795497894287,0.4520269632339477,-0.4288147687911987,0.0855186134576797,#
-0.6125625967979431,-7.57806921005249,6.482156753540039,0.5143333673477173,-0.4202629029750824,0.0916270837187767,#
-0.7920243144035339,-7.17368221282959,6.295516490936279,0.5167768001556396,-0.3762818872928619,0.0745233595371246,#
-0.8207381367683411,-6.946363925933838,6.183053970336914,0.365286648273468,-0.3518480062484741,0.0855186134576797,#
-0.8207381367683411,-6.946363925933838,6.183053970336914,0.2492256760597229,-0.3579564988613128,0.100178949534893,#
-0.7680960297584534,-6.860222339630127,6.429513931274414,0.0525328628718853,-0.3823903799057007,0.1062874197959899,#
-0.6795615553855896,-7.161717891693115,6.616154670715332,-0.0122169442474842,-0.4092676639556885,0.1099525094032287,#
-0.7178468108177185,-7.257431030273437,6.281159400939941,-0.0195471122860908,-0.4214845895767212,0.0989572554826736,#
-0.6915256977081299,-7.238288879394531,6.104090690612793,-0.0305423624813556,-0.4361449182033539,0.0684148892760276,#
-0.6915256977081299,-7.238288879394531,6.104090690612793,-0.0427593067288398,-0.4300364553928375,0.0623064190149307,#
-0.6867401003837585,-7.412964344024658,6.206982612609863,-0.0452026948332786,-0.4251496791839599,0.0598630309104919,#
-0.2991028428077698,-7.561319828033447,6.5491557121276855,0.0183254163712263,-0.439810037612915,0.0293206684291362,#
-0.2656033039093017,-7.743173599243164,6.558726787567139,0.0965138673782348,-0.4410317242145538,-0.007330167107284,#
-0.2177468687295913,-7.680960178375244,6.424728870391846,0.2370087206363678,-0.4300364553928375,-0.0232121963053941,#
-0.3565305471420288,-7.690531730651855,6.544370174407959,0.3359659910202026,-0.4141544103622436,-0.0488677769899368,#
-0.3565305471420288,-7.690531730651855,6.544370174407959,0.3579564988613128,-0.42270627617836,-0.0513111688196659,#
-0.1196411252021789,-8.233702659606934,6.879364967346191,0.4263713657855987,-0.4532486498355865,0.0122169442474842,#
0.0550349205732345,-8.635696411132812,7.118647575378418,0.4752391576766968,-0.4190412163734436,0.0549762547016143,#
-0.1986042857170105,-8.10688304901123,6.984649658203125,0.5277720093727112,-0.3347443044185638,0.1563768982887268,#
-0.3708875179290771,-7.695317268371582,7.319644451141357,0.3750602006912231,-0.3090887069702148,0.2467822879552841,#
-0.3708875179290771,-7.695317268371582,7.319644451141357,0.2651077210903168,-0.3188622593879699,0.2968717515468597,#
-0.3589234054088592,-7.867600917816162,7.860422611236572,0.1148392781615257,-0.3689517080783844,0.3823903799057007,#
-0.1674975752830505,-8.370094299316406,8.520841598510742,0.1820324808359146,-0.3811686933040619,0.4275930821895599,#
-0.3684946894645691,-8.537590980529785,8.5160551071167,0.2675510942935943,-0.31641885638237,0.4666872918605804,#
-0.9523434042930604,-8.317451477050781,8.051848411560059,0.3628432750701904,-0.0048867780715227,0.5522059202194214,#
-0.9523434042930604,-8.317451477050781,8.051848411560059,0.365286648273468,0.1038440242409706,0.5851916074752808,#
-1.277767300605774,-8.477770805358887,9.052047729492188,0.3347443044185638,0.1820324808359146,0.7024743556976318,#
-0.9284151792526244,-8.451449394226074,9.470791816711426,0.0965138673782348,0.3775035738945007,0.8344173431396484,#
-0.9786643981933594,-7.987241268157959,8.346165657043457,-0.0390942245721817,0.5986303091049194,0.758672297000885,#
-1.4021940231323242,-7.487142086029053,7.731209754943848,-0.261442631483078,0.9174925684928894,0.8197570443153381,#
-2.1128623485565186,-7.219145774841309,6.807580471038818,-0.4898994863033294,1.220472812652588,0.893058717250824,#
-2.1128623485565186,-7.219145774841309,6.807580471038818,-0.5766398310661316,1.4257174730300903,0.966360330581665,#
-2.9479575157165527,-6.817151546478272,6.912864685058594,-0.7696675062179565,1.2070342302322388,1.27544903755188,#
-3.5461630821228027,-8.001599311828613,7.025327682495117,-0.3994940817356109,-0.1026223376393318,1.3658545017242432,#
-2.912065029144287,-8.578269004821777,4.711467742919922,0.0940704718232154,-0.7159129977226257,1.4306042194366455,#
-2.7972097396850586,-7.125825881958008,3.029313325881958,0.7696675062179565,-1.1911520957946775,1.3939534425735474,#
-2.7972097396850586,-7.125825881958008,3.029313325881958,0.9223793148994446,-1.2461284399032593,1.400061845779419,#
-2.251646041870117,-6.072984218597412,2.060220241546631,1.1618314981460571,-1.572320818901062,1.3634110689163208,#
-1.2705888748168943,-5.438885688781738,2.1655044555664062,1.492910623550415,-1.927833914756775,1.1862653493881226,#
-0.4331009089946747,-4.326223373413086,2.6703903675079346,1.612636685371399,-2.059777021408081,1.0640958547592163,#
0.0981057211756706,-2.974278450012207,3.479164123535156,1.7360278367996216,-2.35787034034729,0.7708892226219177,#
0.6221339106559753,-2.0745770931243896,4.5391845703125,1.885074615478516,-2.789128541946411,0.5070031881332397,#
0.6221339106559753,-2.0745770931243896,4.5391845703125,1.9486026763916016,-2.9845995903015137,0.3542913794517517,#
1.227518081665039,-1.4620146751403809,4.316651821136475,1.8252116441726685,-3.316900491714477,0.0745233595371246,#
1.3639088869094849,-0.0669990330934524,3.627518892288208,1.4574815034866333,-3.4708340167999268,-0.0830752253532409,#
2.562713146209717,0.4666004180908203,4.036691665649414,0.660936713218689,-3.721281528472901,-0.4251496791839599,#
4.364508152008057,-1.6677974462509155,5.436492443084717,0.3445178270339966,-3.453730344772339,-0.7953230738639832,#
4.364508152008057,-1.6677974462509155,5.436492443084717,0.3054236173629761,-3.176405668258667,-0.9846857786178588,#
5.010570526123047,-3.103491306304932,8.47059154510498,0.63283771276474,-2.7671380043029785,-1.3438639640808103,#
4.831109046936035,-2.8929224014282227,9.410971641540527,0.5864133238792419,-2.4800398349761963,-1.3780713081359863,#
5.821736812591553,-3.225525140762329,9.09272575378418,0.4556920528411865,-2.3480966091156006,-1.3292036056518557,#
7.3363938331604,-4.826323509216309,10.77488136291504,-0.2089097648859024,-1.7335845232009888,-1.054322361946106,#
7.3363938331604,-4.826323509216309,10.77488136291504,-0.4837909936904907,-1.4428211450576782,-0.905275583267212,#
8.745766639709473,-7.616354942321777,13.316057205200195,-0.8209787011146545,-0.7354600429534912,-0.6927007436752319,#
8.614161491394043,-7.451249599456787,15.65863037109375,-1.2925527095794678,0.031764056533575,-0.4080459475517273,#
8.22413158416748,-6.92482852935791,16.417156219482422,-1.6297403573989868,0.3603998720645904,-0.2504473626613617,#
7.465606689453125,-6.233303070068359,14.84267807006836,-2.307780742645264,1.007897973060608,0.069636583328247,#
6.149554252624512,-4.3070807456970215,11.832507133483888,-2.9894862174987797,1.822768211364746,0.4666872918605804,#
6.149554252624512,-4.3070807456970215,11.832507133483888,-3.2643675804138184,2.250361204147339,0.5913001298904419,#
4.311866760253906,-4.567898273468018,9.82971477508545,-3.966842174530029,3.0530147552490234,0.9223793148994446,#
2.5292134284973145,-6.072984218597412,9.26740264892578,-4.472623348236084,3.85566782951355,1.0286667346954346,#
1.5984054803848269,-7.137789726257324,8.298308372497559,-4.7255144119262695,4.176973342895508,0.8832851052284241,#
1.1006983518600464,-5.345565319061279,4.855037212371826,-5.188536643981934,4.498279094696045,1.1398409605026243,#
1.1006983518600464,-5.345565319061279,4.855037212371826,-5.293601989746094,4.5227131843566895,1.244906663894653,#
0.0741775035858154,-5.67338228225708,2.194218397140503,-5.682101249694824,4.68641996383667,1.3841798305511477,#
-1.5050854682922363,-6.833901405334473,0.8662018179893494,-5.933769702911377,4.593571662902832,1.3340904712677002,#
-2.311466693878174,-6.632904052734375,-0.0550349205732345,-5.900784492492676,4.545925140380859,1.2265812158584597,#
-0.6604190468788147,-7.944170951843262,-0.1674975752830505,-5.331474781036377,4.21851110458374,0.9834640026092528,#
-0.6604190468788147,-7.944170951843262,-0.1674975752830505,-3.7945830821990967,3.283914804458618,0.2406738102436065,#
-3.098705530166626,-9.702895164489746,-1.105484127998352,-2.355427026748657,2.1746160984039307,-0.3396310806274414,#
-2.4287149906158447,-11.131410598754885,-2.792424201965332,0.2040229737758636,0.5974085927009583,-0.2736595571041107,#
-1.1006983518600464,-10.25324535369873,-3.8500516414642334,1.0653176307678225,0.0513111688196659,-0.4385882914066314,#
-1.2634103298187256,-10.07378387451172,-2.579463005065918,1.8643057346343996,-0.9003888368606567,-0.7550071477890015,#
-1.1006983518600464,-10.71027374267578,0.2057827562093734,1.7567967176437378,-1.610193371772766,-0.8490777015686035,#
-1.1006983518600464,-10.71027374267578,0.2057827562093734,1.288887619972229,-1.7873390913009644,-0.6536065340042114,#
-0.4546363055706024,-11.69851016998291,2.3258235454559326,0.5131116509437561,-1.6688346862792969,-0.129499614238739,#
-0.3756731450557709,-14.316258430480955,3.136990547180176,-0.3200839459896087,-1.2852225303649902,0.3677300214767456,#
-0.1124626696109771,-14.045868873596191,3.476771354675293,-0.5216635465621948,-0.8038749694824219,0.5045598149299622,#
-0.5120640397071838,-11.318050384521484,5.151747226715088,-0.8564078211784363,0.5693095922470093,0.7843278050422668,#
-0.5120640397071838,-11.318050384521484,5.151747226715088,-1.0335536003112793,1.1935955286026,0.8759549260139465,#
-1.1629117727279663,-9.111868858337402,5.852844715118408,-1.605306625366211,2.100092887878418,1.0323318243026731,#
-1.1748759746551514,-8.032705307006836,4.462614059448242,-2.4055163860321045,2.776911497116089,1.2168077230453491,#
-1.4787644147872925,-7.822136878967285,1.5720844268798828,-2.643746852874756,2.9528355598449707,1.2925527095794678,#
-2.007578134536743,-7.508677005767822,-0.0765703245997428,-2.675510883331299,3.072561740875244,1.320651650428772,#
-2.3497519493103027,-6.489335060119629,-0.7345964908599854,-2.410403251647949,3.195952653884888,1.2424633502960205,#
-2.3497519493103027,-6.489335060119629,-0.7345964908599854,-2.1575124263763428,3.127537727355957,1.188708782196045,#
-2.4717857837677,-6.539584159851074,0.1220339611172676,-1.5882028341293335,2.685284376144409,1.0262233018875122,#
-2.00518536567688,-7.152146816253662,-2.249253273010254,-1.3096565008163452,2.302894115447998,0.8820634484291077,#
-2.234896183013916,-7.999206066131592,-4.7952165603637695,-0.9211575984954834,1.7128156423568726,0.7171346545219421,#
-2.438286304473877,-7.051648139953613,-5.190032482147217,-1.3524158000946045,1.3389772176742554,0.4727957546710968,#
-2.438286304473877,-7.051648139953613,-5.190032482147217,-1.6883817911148071,1.237576603889465,0.3323009014129638,#
-2.1822540760040283,-8.38684368133545,-5.804987907409668,-1.9498244524002075,1.1654964685440063,0.0439810007810592,#
-2.857030153274536,-9.731609344482422,-5.192424774169922,-1.3670761585235596,0.8564078211784363,-0.0378725305199623,#
-2.933600425720215,-10.042675971984863,-5.568098068237305,-0.95169997215271,0.6389462351799011,-0.0574196390807628,#
-2.567498683929444,-9.66939640045166,-5.824130058288574,-0.1600419729948043,0.3616215586662292,-0.0794101431965828,#
-2.567498683929444,-9.66939640045166,-5.824130058288574,0.0733016654849052,0.3139754831790924,-0.0830752253532409,#
-2.902493953704834,-8.968299865722656,-5.871986389160156,0.1136175915598869,0.2137965410947799,-0.0855186134576797,#
-2.5938196182250977,-8.944371223449707,-5.039284706115723,-0.1062874197959899,0.1417165547609329,-0.0024433890357613,#
-2.8666017055511475,-8.96112060546875,-4.67078971862793,-0.2028012871742248,0.1136175915598869,-0.0012216945178806,#
-2.7948169708251958,-9.22433090209961,-3.929014682769776,-0.1160609796643257,-0.0061084721237421,0.0097735561430454,#
-2.900100946426392,-8.322237014770508,-3.6299118995666495,0.0720799788832664,-0.1050657257437706,0.0183254163712263,#
-2.900100946426392,-8.322237014770508,-3.6299118995666495,0.1368297785520553,-0.1343863904476165,0.0256555844098329,#
-2.847458839416504,-8.298308372497559,-3.421736478805542,-0.128277912735939,-0.2125748395919799,0.0232121963053941,#
-2.871387243270874,-5.979663372039795,-3.0077781677246094,-1.2143642902374268,-0.2272351831197738,-0.0012216945178806,#
-2.8043880462646484,-7.704888820648193,-2.7254250049591064,-1.6700563430786133,-0.2406738102436065,-0.0280989725142717,#
-2.2229323387146,-8.685946464538574,-3.2135608196258545,-2.006022453308105,-0.1893626451492309,-0.2040229737758636,#
-2.2229323387146,-8.685946464538574,-3.2135608196258545,-2.0964276790618896,-0.1319430023431778,-0.2467822879552841,#
-2.5052852630615234,-4.864608287811279,-3.1202406883239746,-2.2369225025177,0.1319430023431778,-0.2443388998508453,#
-1.931007981300354,-6.759723663330078,-2.991028308868408,-2.2234840393066406,0.5057815313339233,-0.4532486498355865,#
-1.643869161605835,-6.429513931274414,-4.589433670043945,-2.112309694290161,0.6865922808647156,-0.6291726231575012,#
-1.2562319040298462,-6.982256412506104,-5.01296329498291,-2.0231261253356934,0.9126058220863342,-0.9504783153533936,#
-1.0863415002822876,-8.925228118896484,-6.534798622131348,-2.161177635192871,1.0286667346954346,-1.290109395980835,#
-1.0863415002822876,-8.925228118896484,-6.534798622131348,-2.089097499847412,0.9541434049606324,-1.4599249362945557,#
-1.2562319040298462,-8.970691680908203,-7.168896198272705,-1.7421363592147827,0.4080459475517273,-1.3915101289749146,#
-0.6197410225868225,-9.372685432434082,-8.501699447631836,-0.8845068216323853,0.0109952501952648,-1.1141853332519531,#
-0.6580261588096619,-10.447062492370604,-9.698110580444336,-0.3677300214767456,-0.0635281130671501,-0.9272661209106444,#
-1.0408778190612793,-9.822537422180176,-9.67657470703125,0.2076880484819412,-0.1771456897258758,-0.6780403852462769,#
-1.0408778190612793,-9.822537422180176,-9.67657470703125,0.2137965410947799,-0.2137965410947799,-0.5632011890411377,#
-1.3902300596237185,-9.702895164489746,-8.760124206542969,0.100178949534893,-0.3603998720645904,-0.3384093642234802,#
-1.8831514120101929,-9.454042434692385,-7.905886173248291,0.2663294076919555,-0.6572716236114502,-0.0794101431965828,#
-1.9860427379608157,-9.650253295898438,-7.444070816040039,0.4129327237606048,-0.7647807598114014,0.003665083553642,#
-2.0793628692626958,-10.66481113433838,-7.049255847930908,1.4257174730300903,-0.9871291518211364,0.1038440242409706,#
-2.0793628692626958,-10.66481113433838,-7.049255847930908,2.152625799179077,-1.0592091083526611,0.1160609796643257,#
-1.9070796966552732,-9.497113227844238,-6.417550563812256,3.5184803009033203,-1.0983033180236816,0.0109952501952648,#
-2.060220241546631,-8.264809608459473,-5.603990077972412,4.073129653930664,-1.2155860662460327,-0.2089097648859024,#
-1.497907042503357,-7.841279983520508,-4.036691665649414,4.079237937927246,-1.3243167400360107,-0.2699944972991943,#
-1.4404792785644531,-8.609375953674316,-3.5605196952819824,4.275930881500244,-1.6896034479141235,-0.7171346545219421,#
-1.710868239402771,-8.975478172302246,-3.4576287269592285,5.084692478179932,-2.071993827819824,-1.0274450778961182,#
-1.710868239402771,-8.975478172302246,-3.4576287269592285,5.7297468185424805,-2.1648426055908203,-1.347529053688049,#
-1.8161523342132568,-9.68375301361084,-4.187439441680908,6.896465301513672,-2.3761956691741943,-1.8276549577713013,#
-1.5002998113632202,-9.44447135925293,-2.8594231605529785,7.482878684997559,-2.296785831451416,-2.082988977432251,#
-1.112662434577942,-7.793423175811768,-0.9667003750801086,7.532968044281006,-2.170951128005981,-1.6993770599365234,#
-0.9284151792526244,-7.934599876403809,1.4452648162841797,6.95632791519165,-2.5912139415740967,-1.8801878690719604,#
-0.9284151792526244,-7.934599876403809,1.4452648162841797,6.647239685058594,-2.875868797302246,-1.987696886062622,#
0.9882357716560364,-8.226524353027344,1.411765456199646,6.864701271057129,-3.536805391311645,-2.4959216117858887,#
-0.5910272002220154,-7.9585280418396,0.5312066078186035,6.891578674316406,-2.9064111709594727,-2.279681921005249,#
1.3471590280532837,-3.4959137439727783,1.66301167011261,6.393126964569092,-2.8709819316864014,-0.7782194018363953,#
3.491128206253052,-2.9288151264190674,4.240081787109375,4.818362712860107,-2.5130257606506348,-0.3359659910202026,#
3.491128206253052,-2.9288151264190674,4.240081787109375,2.8196709156036377,-1.8740792274475095,-0.6499415040016174,#
3.5844480991363525,-5.065605640411377,7.085147857666016,2.103757858276367,-1.900956630706787,-0.4422534108161926,#
3.840480089187622,-6.369694232940674,8.188239097595215,1.313321590423584,-2.161177635192871,-0.445918470621109,#
3.012563943862915,-6.814758777618408,6.527620315551758,1.2864443063735962,-2.2894556522369385,-0.9700254201889038,#
4.206582069396973,-5.48674201965332,5.008177757263184,1.494132399559021,-2.2491395473480225,0.0647498071193695,#
5.041677951812744,-4.620540142059326,5.498706817626953,0.6914790868759155,-2.0561118125915527,0.1685938388109207,#
5.041677951812744,-4.620540142059326,5.498706817626953,0.1844758540391922,-1.8362067937850952,0.155155211687088,#
5.190032482147217,-5.556134223937988,6.297908782958984,-0.3603998720645904,-1.4745851755142212,0.287098228931427,#
5.063212871551514,-6.252446174621582,7.257431030273437,-0.549762487411499,-1.3340904712677002,0.2883199155330658,#
5.106283187866211,-6.20219612121582,7.3675007820129395,-0.5851916074752808,-1.3511940240859983,0.2785463333129883,#
5.264209270477295,-6.226124286651611,7.482356548309326,-0.4544703662395477,-1.3951750993728638,0.2418954968452453,#
5.264209270477295,-6.226124286651611,7.482356548309326,-0.3323009014129638,-1.3841798305511477,0.2321219593286514,#
5.168497085571289,-5.240281581878662,6.788437843322754,-0.3494046330451965,-1.3096565008163452,0.2993151545524597,#
5.1637115478515625,-5.108676433563232,6.285945415496826,-0.4752391576766968,-1.0323318243026731,0.2516690790653229,#
5.290531158447266,-5.491527557373047,6.515655517578125,-0.5583143830299377,-0.8893935680389404,0.2687727808952331,#
4.945964336395264,-5.252245903015137,6.821937084197998,-0.8564078211784363,-0.6291726231575012,0.2382304221391677,#
5.0201416015625,-5.204389572143555,6.711867332458496,-1.1618314981460571,-0.6499415040016174,0.1808107793331146,#
5.0201416015625,-5.204389572143555,6.711867332458496,-1.3084348440170288,-0.6914790868759155,0.1246128380298614,#
5.099104881286621,-5.675775527954102,6.058626651763916,-1.4049487113952637,-0.7476770281791687,0.0109952501952648,#
4.996213912963867,-5.745166778564453,5.127819538116455,-1.3780713081359863,-0.7745543122291565,-0.0366508327424526,#
4.926821708679199,-4.924428939819336,4.388436794281006,-1.3353121280670166,-0.786771297454834,-0.1905843466520309,#
5.259423732757568,-4.627718925476074,4.082155227661133,-1.2583452463150024,-0.7843278050422668,-0.4104893505573272,#
5.259423732757568,-4.627718925476074,4.082155227661133,-1.192373752593994,-0.786771297454834,-0.517998456954956,#
5.501099109649658,-4.01037073135376,3.823730707168579,-1.0347752571105957,-0.7818844318389893,-0.767224133014679,#
5.663811206817627,-4.01754903793335,3.704089403152466,-0.7647807598114014,-0.8429691791534424,-1.0983033180236816,#
6.099304676055908,-3.924229145050049,3.4193434715271,-0.6878139972686768,-0.891836941242218,-1.2216944694519043,#
6.87697172164917,-4.144368648529053,3.0484561920166016,-0.6511631608009338,-0.929709494113922,-1.4477078914642334,#
6.87697172164917,-4.144368648529053,3.0484561920166016,-0.7330166697502136,-0.910162389278412,-1.4794719219207764,#
8.22413158416748,-4.584648132324219,3.1058835983276367,-1.3035480976104736,-0.7537854909896851,-1.5112361907958984,#
9.013763427734377,-5.529813289642334,3.266202926635742,-2.0231261253356934,-0.5363238453865051,-1.5039058923721311,#
8.891729354858398,-6.214160442352295,3.25663161277771,-2.319998025894165,-0.448361873626709,-1.4367127418518066,#
9.054441452026367,-7.676175117492676,3.596412420272827,-2.713383436203003,-0.31641885638237,-1.3145432472229004,#
10.95912742614746,-11.21994400024414,4.60857629776001,-2.554563045501709,-0.2980934381484985,-1.1777135133743286,#
10.95912742614746,-11.21994400024414,4.60857629776001,-2.3273282051086426,-0.342074453830719,-1.1593880653381348,#
11.263016700744627,-13.284950256347656,4.319044589996338,-1.4318259954452517,-0.1637070626020431,-1.2082558870315552,#
10.217352867126465,-11.98564910888672,3.25663161277771,-0.4263713657855987,0.2040229737758636,-0.9553651213645936,#
9.35832977294922,-9.970890998840332,2.651247262954712,-0.1014006435871124,0.393385648727417,-0.84541255235672,#
7.913064479827881,-8.597411155700684,2.7254250049591064,0.3567348122596741,0.6646018028259277,-0.6230642199516296,#
7.913064479827881,-8.597411155700684,2.7254250049591064,0.4129327237606048,0.680483877658844,-0.4007157981395721,#
6.893722057342529,-7.087540626525879,2.9072794914245605,0.2223483920097351,0.5705313086509705,-0.2455605864524841,#
6.1256256103515625,-6.240481376647949,2.785245418548584,-0.0232121963053941,0.411711037158966,-0.199136197566986,#
5.5968122482299805,-5.556134223937988,2.390429735183716,-0.1111741960048675,0.3677300214767456,-0.199136197566986,#
5.218745708465576,-4.838287353515625,2.084148406982422,-0.2333436459302902,0.2748812437057495,-0.2480039745569229,#
5.070391178131104,-4.465007305145264,1.8999011516571045,-0.1881409436464309,0.2382304221391677,-0.3628432750701904,#
5.070391178131104,-4.465007305145264,1.8999011516571045,-0.1087308079004287,0.2455605864524841,-0.4410317242145538,#
4.941178798675537,-3.998406410217285,1.5601203441619873,0.0219905003905296,0.2370087206363678,-0.6719319820404053,#
5.656632423400879,-4.295116424560547,1.428515076637268,0.0818535313010215,0.2089097648859024,-0.8246437907218933,#
7.049255847930908,-5.678168296813965,1.8735800981521609,0.2577775418758392,0.1453816443681717,-1.147171139717102,#
7.568498134613037,-5.869593620300293,1.5936198234558103,0.4862344264984131,0.0574196390807628,-1.3292036056518557,#
7.568498134613037,-5.869593620300293,1.5936198234558103,0.660936713218689,-0.0012216945178806,-1.4049487113952637,#
7.111469268798828,-5.395814895629883,1.057627558708191,0.6817055344581604,-0.0904053896665573,-1.4648116827011108,#
7.389035701751709,-4.41475772857666,0.8135597109794617,0.5008947253227234,-0.2223483920097351,-1.349972367286682,#
7.238288879394531,-3.3643085956573486,1.0671988725662231,0.3628432750701904,-0.3078669905662536,-1.368297815322876,#
7.618747234344482,-3.4576287269592285,1.007378339767456,0.1539334952831268,-0.5668662190437317,-1.3963968753814695,#
7.618747234344482,-3.4576287269592285,1.007378339767456,0.0928487852215766,-0.7782194018363953,-1.4477078914642334,#
8.068597793579102,-3.3164520263671875,1.0360921621322632,0.1417165547609329,-0.8820634484291077,-1.5112361907958984,#
8.810372352600098,-3.31166672706604,1.1724830865859983,0.4422534108161926,-1.1019684076309204,-1.6786081790924072,#
9.547362327575684,-3.524627923965454,1.435693621635437,0.6865922808647156,-1.2082558870315552,-1.7531315088272097,#
10.511670112609863,-3.483949899673462,1.797009825706482,1.227802872657776,-1.3353121280670166,-1.9058433771133425,#
11.22233772277832,-3.428915023803711,1.7539390325546265,1.93272066116333,-1.4415994882583618,-2.0414514541625977,#
11.22233772277832,-3.428915023803711,1.7539390325546265,2.1819465160369877,-1.4220523834228516,-2.1306352615356445,#
12.038290023803713,-3.1752755641937256,1.660618782043457,2.5936574935913086,-1.2852225303649902,-2.091541051864624,#
12.440284729003906,-2.3473589420318604,1.730010747909546,2.6975014209747314,-0.9126058220863342,-1.838650107383728,#
12.937992095947266,-2.543570280075073,2.115255117416382,2.598544120788574,-0.7550071477890015,-1.722589135169983,#
12.46660614013672,-2.5052852630615234,2.3497519493103027,2.265021562576294,-0.4654656052589416,-1.202147364616394,#
12.46660614013672,-2.5052852630615234,2.3497519493103027,1.8655275106430051,-0.3787252902984619,-0.9773555994033812,#
12.117253303527832,-2.177468776702881,2.3545374870300293,0.9272661209106444,-0.1172826737165451,-0.4495835602283478,#
12.3278226852417,-1.739582061767578,3.259024381637573,-0.0952921733260154,0.1014006435871124,0.3005368411540985,#
12.26560878753662,-2.4717857837677,3.103491306304932,-0.499673068523407,0.1771456897258758,0.6682668924331665,#
12.009575843811035,-2.538784980773926,2.395215511322021,-1.2082558870315552,0.4532486498355865,1.2534584999084473,#
12.009575843811035,-2.538784980773926,2.395215511322021,-1.794669270515442,0.7818844318389893,1.7592401504516602,#
11.542977333068848,-2.96949315071106,2.230110645294189,-2.087875843048096,0.9358179569244384,1.9473810195922847,#
10.963912963867188,-3.620340585708618,3.153740167617798,-2.825779438018799,1.0323318243026731,2.0438947677612305,#
11.052447319030762,-4.761716842651367,4.441079139709473,-2.922293186187744,0.926044464111328,1.9608196020126345,#
11.121840476989746,-5.67338228225708,3.6610186100006095,-2.625421524047852,0.6474980711936951,2.239366054534912,#
10.614561080932615,-6.041877269744873,2.6703903675079346,-2.2430310249328613,0.7696675062179565,2.3395450115203857,#
10.614561080932615,-6.041877269744873,2.6703903675079346,-2.085432529449463,0.860072910785675,2.381082773208618,#
10.114461898803713,-6.415157318115234,3.6251261234283447,-1.6028631925582886,1.011563062667847,2.37741756439209,#
10.13599681854248,-6.896114826202393,5.017749309539795,-0.9834640026092528,1.099524974822998,2.3468751907348637,#
10.169495582580566,-7.377072334289551,5.103890895843506,-0.624285876750946,1.1337324380874634,2.3713088035583496,#
10.62173843383789,-6.077769756317139,5.453242778778076,-0.4178195297718048,1.233911395072937,2.4433889389038086,#
10.62173843383789,-6.077769756317139,5.453242778778076,-0.4837909936904907,1.227802872657776,2.470266103744507,#
10.310672760009766,-5.783452033996582,5.4795637130737305,-0.786771297454834,1.3463072776794434,2.5582282543182373,#
10.372885704040527,-6.620940208435059,4.977071285247803,-1.1654964685440063,1.770235300064087,2.825779438018799,#
11.057233810424805,-7.39142894744873,5.134997367858887,-1.280335783958435,2.0927627086639404,2.9345102310180664,#
10.00439167022705,-8.2695951461792,5.694917678833008,-1.1752701997756958,2.965052604675293,3.167853593826294,#
8.980262756347656,-7.853243827819824,7.77188777923584,-1.0934165716171265,3.60399866104126,3.233825206756592,#
8.980262756347656,-7.853243827819824,7.77188777923584,-1.2473500967025757,3.8410074710845943,3.191066026687622,#
8.465806007385254,-7.317252159118652,9.145368576049805,-1.492910623550415,3.9497382640838623,3.0945520401000977,#
7.599604606628418,-7.439285278320312,7.63310432434082,-1.3707412481307983,3.881323337554932,3.0298023223876958,#
6.685546875,-6.831508636474609,6.135197162628174,-1.0152281522750854,3.969285488128662,3.0249156951904297,#
5.814558982849121,-6.819544315338135,6.675975322723389,-0.5070031881332397,4.305251598358154,2.954057216644287,#
5.814558982849121,-6.819544315338135,6.675975322723389,-0.235787034034729,4.581354141235352,2.9064111709594727,#
4.8813581466674805,-6.477370738983154,7.018148422241211,0.2944283783435821,5.051706790924072,2.659628868103028,#
3.708875179290772,-5.678168296813965,3.615554809570313,0.2504473626613617,5.443871021270752,2.395742893218994,#
2.756531953811645,-4.350151538848877,1.8089739084243772,0.0085518611595034,5.640563488006592,2.2320358753204346,#
1.5337992906570437,-4.271188735961914,0.9260223507881165,-0.5351021885871887,5.887345314025879,1.9522677659988403,#
1.5337992906570437,-4.271188735961914,0.9260223507881165,-0.8832851052284241,5.760289192199707,1.9999139308929443,#
-0.1459621787071228,-5.443671703338623,-0.3876372575759887,-0.9871291518211364,5.1274518966674805,1.469698429107666,#
-0.4977070987224579,-6.374479293823242,-0.2536391913890838,-0.7000309228897095,4.588684558868408,1.359745979309082,#
0.607776939868927,-6.587440490722656,-1.9453648328781128,-0.5351021885871887,4.488505363464356,1.200925588607788,#
0.969093143939972,-7.003791332244873,-4.553541660308838,-0.6157339811325073,4.371222972869873,0.8063183426856995,#
0.3684946894645691,-8.415557861328125,-5.742774486541748,-1.1447278261184692,4.123219013214111,0.4361449182033539,#
0.3684946894645691,-8.415557861328125,-5.742774486541748,-1.424495816230774,3.750602006912232,0.2944283783435821,#
-0.5479563474655151,-8.939584732055664,-4.321437358856201,-1.433047652244568,2.53135085105896,0.256555825471878,#
-0.1339980661869049,-8.767301559448242,-5.630311965942383,-1.0885297060012815,1.6138584613800049,0.2577775418758392,#
-0.1938186287879943,-8.717053413391113,-7.128218650817871,-0.9749122262001038,1.3292036056518557,0.256555825471878,left
-0.8063812851905823,-9.365508079528809,-7.929814338684082,-0.7488986849784851,0.8478559851646423,0.2406738102436065,left
-0.8063812851905823,-9.365508079528809,-7.929814338684082,-0.6878139972686768,0.5754181146621704,0.2626643180847168,left
-0.0789631456136703,-9.870393753051758,-9.327221870422363,-0.9956809878349304,0.0940704718232154,0.4495835602283478,left
0.1004985496401786,-11.612367630004885,-10.112068176269531,-1.233911395072937,-0.2431172132492065,-0.1026223376393318,left
0.114855483174324,-11.30130100250244,-8.2695951461792,-1.4367127418518066,-0.3872771561145782,0.0537545569241046,left
-0.2177468687295913,-11.162517547607422,-6.735795497894287,-1.4965757131576538,-0.8783983588218689,0.0268772784620523,left
-0.2177468687295913,-11.162517547607422,-6.735795497894287,-1.290109395980835,-1.3548591136932373,0.0769667476415634,left
-0.1579262912273407,-10.509278297424316,-6.92482852935791,-1.2351330518722534,-1.5918679237365725,-0.0280989725142717,left
0.9595218896865844,-11.038090705871582,-7.046862602233887,-1.3243167400360107,-2.0121307373046875,-0.1172826737165451,left
1.3160523176193235,-11.645866394042969,-5.730810642242432,-1.3426421880722046,-2.230814218521118,-0.128277912735939,left
-0.3756731450557709,-11.873186111450195,-3.1178479194641118,-1.525896430015564,-3.020028591156006,-0.1136175915598869,left
-0.0502492748200893,-12.045469284057615,-2.3401806354522705,-1.3963968753814695,-4.1904120445251465,0.0061084721237421,left
-0.0502492748200893,-12.045469284057615,-2.3401806354522705,-1.3011046648025513,-4.614340305328369,0.1111741960048675,left
0.8159525394439697,-12.330215454101562,-2.007578134536743,-1.3023263216018677,-5.176319599151611,0.2418954968452453,left
1.7491532564163208,-13.708480834960938,-1.8831514120101929,-1.2742273807525637,-5.739521026611328,0.3457395434379577,left
2.411965131759644,-13.292129516601562,-1.0456634759902954,-1.3866231441497805,-6.09259033203125,0.3518480062484741,left
1.4452648162841797,-12.952347755432127,2.9838497638702397,-1.5503302812576294,-7.343605518341064,0.4410317242145538,left
1.4452648162841797,-12.952347755432127,2.9838497638702397,-1.2607886791229248,-8.28675365447998,0.6035171151161194,left
1.56969153881073,-14.718252182006836,5.821736812591553,0.3310791850090027,-9.8566312789917,1.0042328834533691,left
3.029313325881958,-15.443277359008787,3.79262375831604,2.548454761505127,-10.253682136535645,1.0384403467178345,left
3.3379876613616943,-15.876379013061523,-0.2584248483181,3.1800708770751958,-10.160833358764648,1.188708782196045,left
4.692325115203857,-11.21515941619873,-2.115255117416382,3.195952653884888,-9.705141067504885,1.8093295097351076,left
9.418149948120115,-9.803394317626951,3.6921253204345694,3.3486645221710205,-8.885384559631348,1.7177023887634275,left
9.418149948120115,-9.803394317626951,3.6921253204345694,3.7457151412963863,-8.648375511169434,1.6798299551010132,left
10.681561470031738,-7.7455668449401855,5.836094379425049,4.720627784729004,-8.032641410827637,1.2974395751953125,left
9.073582649230955,-1.2370892763137815,2.964707374572754,3.814130306243897,-6.692442417144775,1.382958173751831,left
8.910871505737305,2.5124638080596924,2.792424201965332,2.918627977371216,-5.722416877746582,1.450151443481445,left
9.20279598236084,-1.179661512374878,7.70249605178833,1.3621894121170044,-4.069464206695557,1.3120999336242676,left
9.20279598236084,-1.179661512374878,7.70249605178833,1.196038842201233,-3.589338541030884,1.1178505420684814,left
10.363314628601074,-1.6893328428268433,10.561919212341309,1.5662122964859009,-2.434837102890014,0.7403469085693359,left
9.868000030517578,-0.4211367666721344,11.667403221130373,1.4073920249938965,-1.1044118404388428,0.6218425035476685,left
8.343771934509277,-0.6580261588096619,11.60279655456543,1.155722975730896,-0.5167768001556396,0.5534276366233826,left
6.147161483764648,-0.935593605041504,10.387242317199709,0.6389462351799011,0.3481829464435577,0.3738385140895843,#
6.147161483764648,-0.935593605041504,10.387242317199709,0.3603998720645904,0.5937435030937195,0.2052446752786636,#
4.393222332000732,-1.5864413976669312,9.147761344909668,-0.1624853760004043,0.8686248064041138,0.1356080919504165,#
2.868994235992432,-2.723031997680664,8.097311973571777,-0.4007157981395721,1.0787562131881714,-0.0024433890357613,#
1.6989041566848757,-3.713660717010498,7.063612461090088,-0.4520269632339477,1.119072198867798,-0.0842969194054603,#
1.5936198234558103,-4.527220726013184,5.998805999755859,-0.416597843170166,0.9932376146316528,-0.2932066619396209,#
1.8185452222824097,-4.180261135101318,4.907679080963135,-0.3506263196468353,0.8991671204566956,-0.6169556975364685,#
1.8185452222824097,-4.180261135101318,4.907679080963135,-0.3591781854629516,0.8674030900001526,-0.8246437907218933,#
2.1583259105682373,-4.185047149658203,4.855037212371826,-0.2980934381484985,0.8099834322929382,-0.9455915093421936,#
1.2131611108779907,-4.120440483093262,4.445864677429199,-0.3017585575580597,0.9480348825454712,-1.3120999336242676,#
-0.0813559740781784,-4.374079704284668,3.5605196952819824,-0.2638860046863556,0.7916580438613892,-1.4257174730300903,#
0.5575276613235474,-2.8737800121307373,3.103491306304932,-0.2858764827251434,0.0610847249627113,-1.2265812158584597,#
0.5575276613235474,-2.8737800121307373,3.103491306304932,-0.4385882914066314,-0.1148392781615257,-1.392731785774231,#
1.710868239402771,-2.1990041732788086,2.328216552734375,-0.9382613897323608,-0.282211422920227,-1.8191031217575075,#
2.3497519493103027,-1.6845470666885376,2.3617160320281982,-1.3169866800308228,-0.4043808877468109,-1.8704142570495603,#
2.2133607864379883,-2.194218397140503,2.447857618331909,-1.452594757080078,-0.4837909936904907,-1.9217253923416135,#
2.4287149906158447,-2.3234307765960693,2.522034883499145,-1.799556016921997,-0.7696675062179565,-2.13552188873291,#
3.35713005065918,-2.007578134536743,2.2851457595825195,-2.1966066360473637,-1.1447278261184692,-2.4323935508728027,#
3.35713005065918,-2.007578134536743,2.2851457595825195,-2.3358798027038574,-1.336533784866333,-2.578997135162353,#
4.567898273468018,-2.4670000076293945,1.7539390325546265,-2.713383436203003,-1.5845377445220947,-2.8538784980773926,#
5.474778175354004,-2.8929224014282227,1.5529417991638184,-2.8416614532470703,-1.612636685371399,-3.0273590087890625,#
7.027719974517822,-4.570291519165039,1.8544375896453855,-2.8917508125305176,-1.6236319541931152,-3.396310806274414,#
9.004191398620605,-6.360122680664063,1.8185452222824097,-3.0774483680725098,-1.6859383583068848,-3.766484022140503,#
9.004191398620605,-6.360122680664063,1.8185452222824097,-3.1629669666290283,-1.6810516119003296,-3.946073293685913,#
10.124032974243164,-6.900900363922119,1.22033953666687,-3.143419981002808,-1.4648116827011108,-4.286925792694092,#
10.583455085754396,-6.372087001800537,0.6819544434547424,-3.0065901279449463,-1.187487006187439,-4.4738450050354,#
11.700902938842772,-5.711667537689209,0.1100698411464691,-2.9992599487304688,-1.0946382284164429,-4.500722408294678,#
12.940383911132812,-4.941178798675537,-0.4043869972229004,-3.1666321754455566,-0.9492565989494324,-4.519047737121582,#
12.940383911132812,-4.941178798675537,-0.4043869972229004,-3.059123039245605,-0.8881718516349792,-4.505609512329102,#
15.78066635131836,-8.001599311828613,0.0909272655844688,-2.8966376781463623,-0.8063183426856995,-4.3724446296691895,#
17.32642936706543,-10.25802993774414,0.8973084688186646,-2.681619167327881,-0.7501204013824463,-4.357784271240234,#
16.80000877380371,-9.40379238128662,1.935793399810791,-2.5936574935913086,-0.8063183426856995,-4.3809967041015625,#
16.426727294921875,-7.616354942321777,2.2372891902923584,-2.178281307220459,-0.8820634484291077,-4.031591892242432,#
16.357336044311523,-6.936792850494385,2.6847469806671143,-2.0231261253356934,-0.9089407324790956,-3.607663869857788,#
16.357336044311523,-6.936792850494385,2.6847469806671143,-1.9082868099212649,-0.9187142252922058,-3.3840935230255127,#
15.457633018493652,-7.140182495117188,2.6392831802368164,-1.6492875814437866,-0.9064972996711732,-2.8575432300567627,#
14.608181953430176,-7.353143692016602,2.644068956375122,-1.4868022203445437,-0.7769976854324341,-2.392077684402466,#
13.624732971191406,-7.259823799133301,2.3234307765960693,-1.40617036819458,-0.6792621612548828,-2.1966066360473637,#
12.598210334777832,-6.757331371307373,1.8185452222824097,-1.2326897382736206,-0.3787252902984619,-1.8618624210357664,#
12.598210334777832,-6.757331371307373,1.8185452222824097,-1.1935955286026,-0.2015795856714248,-1.7848955392837524,#
11.705689430236816,-5.907878875732422,1.459621787071228,-1.2693406343460083,0.1575985848903656,-1.5674339532852173,#
11.31565761566162,-4.6372904777526855,1.423729419708252,-1.4684767723083496,0.3567348122596741,-1.3719629049301147,#
11.097911834716797,-4.146761417388916,1.1509476900100708,-1.5539953708648682,0.4275930821895599,-1.2620103359222412,#
10.920842170715332,-4.603790760040283,1.1748759746551514,-1.764126896858215,0.52655029296875,-0.9724688529968262,#
10.920842170715332,-4.603790760040283,1.1748759746551514,-1.93272066116333,0.6071821451187134,-0.6426112651824951,#
10.274779319763184,-4.728217601776123,0.8374879360198975,-1.982810139656067,0.634059488773346,-0.4776825606822967,#
9.846465110778809,-4.651647090911865,0.7130610942840576,-2.0964276790618896,0.7024743556976318,-0.1918060332536697,#
9.755537986755373,-4.316651821136475,0.380458801984787,-2.180724620819092,0.7000309228897095,-0.0561979450285434,#
9.556933403015137,-4.108476161956787,0.246460735797882,-2.3273282051086426,0.7171346545219421,0.1905843466520309,#
9.370293617248535,-4.47697114944458,-0.0598205626010894,-2.345653295516968,0.7330166697502136,0.4031591713428497,#
9.370293617248535,-4.47697114944458,-0.0598205626010894,-2.3529837131500244,0.7427902817726135,0.499673068523407,#
9.176474571228027,-4.572684288024902,-0.0741775035858154,-2.2576913833618164,0.707361102104187,0.6572716236114502,#
9.434900283813477,-5.273780822753906,0.1076770275831222,-2.0646636486053467,0.6719319820404053,0.8625163435935974,#
9.724431037902832,-5.948556900024414,0.1986042857170105,-1.887518048286438,0.6462763547897339,0.9736905097961426,#
10.279565811157228,-6.733402729034424,0.1938186287879943,-1.5430002212524414,0.601073682308197,1.227802872657776,#
10.279565811157228,-6.733402729034424,0.1938186287879943,-1.369519591331482,0.5986303091049194,1.3401988744735718,#
10.52841854095459,-7.219145774841309,1.0408778190612793,-0.9089407324790956,0.5241069197654724,1.5601038932800293,#
11.397013664245604,-7.901099681854248,1.5720844268798828,-0.53143709897995,0.3750602006912231,1.9217253923416135,#
11.772686958312988,-7.195217609405518,2.5746772289276123,-0.4239279925823211,0.3310791850090027,2.123305082321167,#
12.04786205291748,-6.774080753326416,2.943171739578247,-0.2015795856714248,0.1453816443681717,2.5350160598754883,#
12.007183074951172,-7.061219692230225,3.87876558303833,-0.0855186134576797,0.1185043603181839,2.886864185333252,#
12.007183074951172,-7.061219692230225,3.87876558303833,-0.0439810007810592,0.2345653474330902,3.110434055328369,#
12.138789176940918,-7.247859954833984,6.98704195022583,0.1221694499254226,0.3530696928501129,3.390202283859253,#
12.04068374633789,-8.0350980758667,8.066205024719238,0.1123958900570869,0.3371876776218414,3.55146598815918,#
12.808778762817385,-7.83410120010376,7.874779224395752,-0.2809897363185882,0.4764608442783355,3.883766651153565,#
12.002398490905762,-7.8795647621154785,7.848458290100098,-0.5558710098266602,0.7525637745857239,4.252718448638916,#
12.002398490905762,-7.8795647621154785,7.848458290100098,-0.4373666048049927,1.1679399013519287,4.0340352058410645,#
12.184252738952637,-10.205389022827148,9.286543846130373,0.0965138673782348,1.8801878690719604,4.090233325958252,#
11.97607707977295,-10.590633392333984,9.78664493560791,0.6963658928871155,2.571666955947876,4.014488220214844,#
10.97348403930664,-8.049454689025879,9.458827018737791,0.9443698525428772,2.9198498725891118,3.974172353744507,#
9.501898765563965,-5.374279499053955,8.537590980529785,0.9688037633895874,3.474499225616455,3.80313491821289,#
9.501898765563965,-5.374279499053955,8.537590980529785,0.7256865501403809,3.6675267219543457,3.485494375228882,#
7.791030406951904,-3.598805427551269,6.343372344970703,0.1930277347564697,4.091454982757568,3.343777656555176,#
6.592226982116699,-3.7734813690185542,5.812166690826416,-0.200357899069786,4.6070098876953125,3.147085189819336,#
5.907878875732422,-4.766502857208252,5.565705299377441,-0.4129327237606048,4.903882026672363,3.002924919128418,#
4.666004180908203,-5.749952793121338,4.098905563354492,-0.5253286361694336,5.338804721832275,2.779355049133301,#
4.00319242477417,-5.685347080230713,1.4021940231323242,-0.7110261917114258,5.424323081970215,2.438502311706543,#
4.00319242477417,-5.685347080230713,1.4021940231323242,-0.8234220743179321,5.408441543579102,2.247917890548706,#
2.620140790939331,-5.50349235534668,-0.6412764191627502,-1.0017894506454468,5.302154064178467,1.9999139308929443,#
1.8376877307891848,-6.180660724639893,1.5529417991638184,-1.0653176307678225,5.200753211975098,1.91317355632782,#
2.462214469909668,-7.501499176025391,2.7278177738189697,-0.8747332096099854,4.927093982696533,1.8484238386154173,#
3.201596736907959,-7.401000499725342,0.2344966232776641,-0.5766398310661316,4.308916568756104,1.5515520572662354,#
3.201596736907959,-7.401000499725342,0.2344966232776641,-0.6145123243331909,4.046252250671387,1.3719629049301147,#
2.187039852142334,-7.111469268798828,-2.6249265670776367,-1.0262233018875122,3.5942251682281494,1.115407109260559,#
1.129412293434143,-8.449056625366211,-3.290131092071533,-1.6602827310562134,3.330339193344116,1.0958600044250488,#
1.2634103298187256,-9.942178726196287,-1.964507341384888,-1.815437912940979,3.2961316108703613,1.1178505420684814,#
0.1196411252021789,-9.370293617248535,-1.459621787071228,-1.674943208694458,2.95650053024292,1.148392915725708,#
0.1196411252021789,-9.370293617248535,-1.459621787071228,-1.429382562637329,2.42017674446106,1.1105202436447144,#
-0.9643075466156006,-7.788637638092041,-2.816352128982544,-1.3634110689163208,2.0866541862487797,1.0909732580184937,#
-1.1653046607971191,-8.226524353027344,-4.536791324615479,-1.3438639640808103,1.6676130294799805,0.9736905097961426,#
-2.0961124897003174,-8.688338279724121,-4.563112735748291,-1.3560807704925537,1.4745851755142212,0.9236010909080504,#
-2.1535403728485107,-8.410772323608398,-4.335794448852539,-1.485580563545227,1.0897514820098877,0.8173136115074158,#
-2.849851608276367,-8.329416275024414,-4.146761417388916,-1.92294716835022,0.5033381581306458,0.7000309228897095,#
-2.849851608276367,-8.329416275024414,-4.146761417388916,-2.104979515075684,0.1087308079004287,0.6291726231575012,#
-2.517249345779419,-8.975478172302246,-4.742574691772461,-2.2405877113342285,-0.4935645759105682,0.5338804721832275,#
-2.8522443771362305,-9.34875774383545,-5.395814895629883,-2.0524466037750244,-0.8576295375823975,0.3982723951339721,left
-2.6392831802368164,-9.602396965026855,-5.450850009918213,-1.940050840377808,-1.0030112266540527,0.3787252902984619,left
-2.2707886695861816,-10.05224895477295,-6.460620880126953,-1.695711970329285,-1.1911520957946775,0.3396310806274414,left
-2.2707886695861816,-10.05224895477295,-6.460620880126953,-1.5967546701431274,-1.2766708135604858,0.2834331095218658,left
-1.6247265338897705,-9.81535816192627,-8.02074146270752,-1.595533013343811,-1.6077499389648438,0.2137965410947799,left
-1.2634103298187256,-9.78664493560791,-7.312465667724609,-1.8728575706481931,-2.4983651638031006,0.199136197566986,left
-1.380658507347107,-10.676774978637695,-6.903293132781982,-1.8459802865982056,-3.142198085784912,0.2174616158008575,left
-0.5144568681716919,-10.494919776916504,-6.195017814636231,-1.5295615196228027,-4.462850093841553,0.2980934381484985,left
0.7513462901115417,-10.068997383117676,-4.642076015472412,-0.9944592714309692,-5.525724411010742,0.3982723951339721,left
0.7513462901115417,-10.068997383117676,-4.642076015472412,-0.7220214009284973,-6.0767083168029785,0.4556920528411865,left
1.6677974462509155,-9.57607650756836,-1.7491532564163208,-0.2651077210903168,-7.518307685852051,0.6658235192298889,left
1.8783657550811768,-8.841480255126953,2.060220241546631,-0.0085518611595034,-8.334400177001953,0.7660024166107178,left
1.5122638940811155,-8.236095428466797,3.141776323318481,0.929709494113922,-9.956809997558594,1.0188932418823242,left
1.938186287879944,-9.439685821533203,2.187039852142334,1.808107852935791,-10.300106048583984,1.453816533088684,left
1.938186287879944,-9.439685821533203,2.187039852142334,1.927833914756775,-10.165719985961914,1.767791986465454,left
3.122633695602417,-10.856236457824709,0.5503491759300232,1.5979763269424438,-11.635417938232422,1.3108781576156616,left
6.314659118652344,-9.346364974975586,2.014756679534912,1.6676130294799805,-10.758241653442385,0.8979454636573792,left
9.724431037902832,-6.522834300994873,4.654040336608887,2.1343002319335938,-9.7772216796875,0.5607577562332153,left
7.018148422241211,-3.8835511207580566,2.3497519493103027,4.089011669158936,-7.330166816711426,-0.2455605864524841,left
7.018148422241211,-3.8835511207580566,2.3497519493103027,4.803702354431152,-6.407787322998047,0.0207688063383102,left
7.2813591957092285,1.4835500717163086,3.335594892501831,3.616215705871582,-5.599025726318359,0.5803048610687256,left
11.643473625183104,2.122433662414551,10.334601402282717,1.775122046470642,-4.969853401184082,0.3713951408863067,left
11.284551620483398,-0.4187439680099487,12.851851463317873,1.2131426334381104,-4.516604423522949,0.522885262966156,left
8.465806007385254,-1.1509476900100708,11.856435775756836,0.998124361038208,-3.051792860031128,0.2944283783435821,left
7.0923261642456055,-0.1938186287879943,10.037891387939451,1.147171139717102,-1.9388291835784912,0.178367406129837,left
7.0923261642456055,-0.1938186287879943,10.037891387939451,1.119072198867798,-1.5112361907958984,0.1197260618209838,left
6.187839508056641,-0.3613162040710449,10.112068176269531,0.8722898364067078,-0.7782194018363953,0.0720799788832664,left
5.572883605957031,-1.6079767942428589,11.296515464782717,0.5070031881332397,-0.4019374847412109,0.1062874197959899,left
5.804987907409668,-1.832902193069458,12.416357040405272,0.3139754831790924,-0.388498842716217,0.0549762547016143,left
5.972485065460205,-1.3974084854125977,11.95932674407959,-0.0464243926107883,-0.3176405727863312,0.0549762547016143,left
5.972485065460205,-1.3974084854125977,11.95932674407959,-0.2028012871742248,-0.21135313808918,-0.040315918624401,left
5.137389659881592,-1.6007983684539795,10.80120086669922,-0.4508052766323089,0.0268772784620523,-0.1368297785520553,left
4.249652862548828,-1.8831514120101929,8.965906143188477,-0.6560499668121338,0.1514901220798492,-0.2932066619396209,left
4.467400074005127,-3.2997026443481445,7.465606689453125,-0.6682668924331665,0.1747023165225982,-0.3970507085323334,#
4.934000015258789,-4.204189300537109,6.910471439361572,-0.4789042472839355,0.3445178270339966,-0.6035171151161194,#
4.934000015258789,-4.204189300537109,6.910471439361572,-0.0745233595371246,0.5900784730911255,-0.9236010909080504,#
4.967499732971191,-4.596612453460693,6.604190349578857,0.178367406129837,0.6633800864219666,-1.0506572723388672,#
4.25922441482544,-3.476771354675293,6.197411060333252,0.365286648273468,0.7379034161567688,-1.148392915725708,#
3.31884503364563,-1.6821542978286743,5.785844802856445,0.2272351831197738,0.6988092660903931,-1.1850436925888062,#
2.914458036422729,-0.8542376756668091,5.362315654754639,-0.3579564988613128,0.4202629029750824,-1.233911395072937,#
2.931207656860352,-1.5385849475860596,4.989035129547119,-0.9345962405204772,0.0158820282667875,-1.068982720375061,#
2.931207656860352,-1.5385849475860596,4.989035129547119,-1.1911520957946775,-0.129499614238739,-1.060430884361267,#
2.959921598434448,-2.4981069564819336,4.709074974060059,-1.4574815034866333,-0.3616215586662292,-1.1764918565750122,#
3.077169895172119,-3.689732551574707,4.094119548797607,-1.5063492059707642,-0.5656445622444153,-1.349972367286682,#
3.314059257507324,-4.053441524505615,3.562912940979004,-1.5295615196228027,-0.652384877204895,-1.492910623550415,#
3.4983065128326416,-3.400200843811035,3.7950167655944815,-1.6566176414489746,-0.786771297454834,-1.7115939855575562,#
3.4983065128326416,-3.400200843811035,3.7950167655944815,-1.6786081790924072,-0.8515210747718811,-1.7910041809082031,#
3.785445213317871,-4.053441524505615,3.988835573196411,-1.6969337463378906,-1.0262233018875122,-1.907065153121948,#
4.460221290588379,-3.8907296657562256,4.23529577255249,-1.837428450584412,-1.257123589515686,-2.108644723892212,#
5.333601474761963,-3.4408791065216064,3.933800458908081,-1.9046216011047363,-1.3230950832366943,-2.175837755203247,#
5.747560024261475,-3.658626079559326,3.811766624450684,-2.0011355876922607,-1.3108781576156616,-2.26990818977356,#
6.632904052734375,-5.453242778778076,4.151546955108643,-2.060998678207397,-1.3353121280670166,-2.431172132492065,#
6.632904052734375,-5.453242778778076,4.151546955108643,-2.1452953815460205,-1.381736397743225,-2.5594499111175537,#
7.657032012939453,-6.355337142944336,3.8596229553222656,-2.144073724746704,-1.3719629049301147,-2.797680377960205,#
8.733802795410156,-6.065804958343506,3.1585259437561035,-2.2063801288604736,-1.1361758708953855,-2.829444408416748,#
9.190832138061523,-5.233102798461914,3.4480574131011963,-2.3700873851776123,-0.9443698525428772,-2.8453264236450195,#
10.415956497192385,-6.350551128387451,3.5030922889709477,-2.50813889503479,-0.7647807598114014,-2.724378824234009,#
10.415956497192385,-6.350551128387451,3.5030922889709477,-2.702388048171997,-0.833195686340332,-2.6070961952209477,#
10.317852020263672,-5.285745620727539,3.3786656856536865,-2.945505380630493,-0.6939224600791931,-2.70116662979126,#
10.021141052246094,-6.5180487632751465,3.160918712615967,-3.125094413757324,-1.1056334972381592,-2.698723077774048,#
12.423534393310549,-5.979663372039795,2.636890411376953,-3.1605236530303955,-1.0372185707092283,-2.6571855545043945,#
12.346964836120604,-6.821937084197998,2.854637384414673,-2.725600242614746,-0.7623373866081238,-2.7903501987457275,#
12.346964836120604,-6.821937084197998,2.854637384414673,-2.455605745315552,-0.95658677816391,-2.71460509300232,#
12.882957458496094,-7.513463020324707,2.9862425327301025,-2.349318504333496,-1.0188932418823242,-2.724378824234009,#
12.64606761932373,-7.051648139953613,2.9240293502807617,-1.9632630348205569,-1.0750911235809326,-2.6303083896636963,#
12.634103775024414,-5.972485065460205,3.043670415878296,-1.808107852935791,-1.1019684076309204,-2.491034984588623,#
12.48574924468994,-5.072784423828125,2.9288151264190674,-1.4318259954452517,-1.148392915725708,-2.19782829284668,#
12.610175132751465,-5.300102710723877,2.957528829574585,-1.1508362293243408,-1.1398409605026243,-1.8496454954147337,#
12.610175132751465,-5.300102710723877,2.957528829574585,-1.086086392402649,-1.119072198867798,-1.7128156423568726,#
12.79920768737793,-6.56829833984375,3.115455150604248,-1.0897514820098877,-1.0176715850830078,-1.5588821172714231,#
12.344571113586426,-6.563512325286865,2.799602746963501,-1.0726476907730105,-0.8026533126831055,-1.4367127418518066,#
11.57168960571289,-5.955735206604004,2.421536445617676,-1.035996913909912,-0.6865922808647156,-1.347529053688049,#
10.899307250976562,-5.347958564758301,2.108076810836792,-1.0091196298599243,-0.4691306948661804,-1.0653176307678225,#
10.899307250976562,-5.347958564758301,2.108076810836792,-1.0103412866592407,-0.342074453830719,-0.8808417320251465,#
10.805987358093262,-5.632704257965088,2.1104695796966557,-0.95169997215271,-0.0012216945178806,-0.5302154421806335,#
10.315458297729492,-5.781059265136719,2.744567632675171,-1.0811996459960938,0.2528907656669616,-0.2577775418758392,#
10.140782356262209,-5.709274768829346,2.8594231605529785,-1.2106993198394775,0.3115321099758148,-0.1710372269153595,#
9.92542839050293,-5.422136306762695,3.141776323318481,-1.4220523834228516,0.4275930821895599,0.0439810007810592,#
9.92542839050293,-5.422136306762695,3.141776323318481,-1.573542594909668,0.5253286361694336,0.2687727808952331,#
10.059426307678224,-4.898108005523682,3.1345977783203125,-1.695711970329285,0.5473191142082214,0.4202629029750824,#
10.157532691955566,-4.47697114944458,2.368894338607788,-2.152625799179077,0.7941014170646667,0.7647807598114014,#
10.590633392333984,-4.862215518951416,2.2683956623077397,-2.381082773208618,0.9284878373146056,0.905275583267212,#
11.06680393218994,-5.814558982849121,3.871586799621582,-2.6975014209747314,1.241241693496704,1.225359559059143,#
11.045268058776855,-6.230910301208496,3.759124279022217,-2.901524305343628,1.3866231441497805,1.5271180868148804,#
11.045268058776855,-6.230910301208496,3.759124279022217,-2.979712724685669,1.456259846687317,1.6859383583068848,#
11.217552185058594,-6.606583118438721,3.799802303314209,-2.988264799118042,1.6065282821655271,1.822768211364746,#
10.772488594055176,-6.077769756317139,4.074976921081543,-2.993151426315308,1.6920467615127563,2.065885305404663,#
10.26760196685791,-5.72123908996582,3.335594892501831,-2.993151426315308,1.673721432685852,2.210045337677002,#
10.040283203125,-5.996413230895996,3.842873096466065,-2.950392246246338,1.7580183744430542,2.351761817932129,#
10.040283203125,-5.996413230895996,3.842873096466065,-2.8050105571746826,1.794669270515442,2.404294729232788,#
9.930214881896973,-6.73818826675415,4.232903003692627,-2.3065593242645264,2.0084657669067383,2.47881817817688,#
9.262616157531738,-7.369894027709961,3.785445213317871,-1.715259075164795,2.294342279434204,2.355427026748657,#
8.374878883361816,-6.580262184143066,3.847658634185791,-1.612636685371399,2.3615353107452397,2.3615353107452397,#
7.858029365539551,-5.785844802856445,4.321437358856201,-1.5442218780517578,2.3419883251190186,2.309002637863159,#
7.147361278533936,-5.783452033996582,4.8502516746521,-1.3414205312728882,2.313889265060425,2.1966066360473637,#
7.147361278533936,-5.783452033996582,4.8502516746521,-1.2387982606887815,2.18438982963562,2.2344791889190674,#
6.812366485595703,-5.986842632293701,3.842873096466065,-1.0017894506454468,2.293120622634888,2.040229797363281,#
6.972684860229492,-6.410372257232666,3.4169507026672363,-0.9382613897323608,2.374974012374878,1.92294716835022,#
6.616154670715332,-6.809973239898682,3.012563943862915,-0.8893935680389404,2.428728580474853,1.8557538986206052,#
6.479763507843018,-7.197610855102539,2.0889341831207275,-0.8295305371284485,2.5008084774017334,1.7629051208496094,#
6.479763507843018,-7.197610855102539,2.0889341831207275,-0.864959716796875,2.565558433532715,1.7531315088272097,#
6.106483459472656,-7.097111701965332,1.0719845294952393,-0.8893935680389404,2.75003433227539,1.767791986465454,#
5.292923927307129,-6.733402729034424,0.1962114423513412,-1.0433270931243896,2.7720248699188232,1.6712781190872192,#
4.721039295196533,-7.056434154510498,2.376072883605957,-1.0714260339736938,2.785463571548462,1.6395140886306765,#
4.618147850036621,-7.573283672332764,1.4835500717163086,-0.9871291518211364,2.611982822418213,1.5882028341293335,#
4.618147850036621,-7.573283672332764,1.4835500717163086,-0.9223793148994446,2.5044736862182617,1.5527737140655518,#
3.6681969165802,-7.424928665161133,0.7513462901115417,-0.8026533126831055,2.366422176361084,1.582094430923462,#
4.247260093688965,-7.70249605178833,1.1389836072921753,-1.414722204208374,2.421398639678955,1.5307831764221191,#
3.823730707168579,-8.334200859069824,1.9716858863830569,-1.6602827310562134,2.4055163860321045,1.4550381898880005,#
2.959921598434448,-9.391828536987305,3.830909013748169,-1.9339423179626465,2.036564826965332,1.48802387714386,#
3.0939197540283203,-10.112068176269531,2.868994235992432,-1.6773865222930908,1.5002408027648926,1.573542594909668,#
3.0939197540283203,-10.112068176269531,2.868994235992432,-1.4098354578018188,1.5234529972076416,1.641957402229309,#
1.6701902151107788,-10.011569023132324,0.8877372145652771,-0.6792621612548828,1.6615043878555298,1.7433580160140991,#
0.696311354637146,-10.987841606140137,1.5649060010910034,-0.3042019307613373,2.010909080505371,1.9449377059936523,#
-0.4043869972229004,-10.951948165893556,3.1274189949035645,-0.2541124522686004,2.1733944416046143,1.90339994430542,#
-1.514656662940979,-9.913464546203612,4.457828521728516,-0.1075091138482093,2.3248846530914307,1.9376075267791748,#
-1.514656662940979,-9.913464546203612,4.457828521728516,-0.0879620015621185,2.2027151584625244,1.9156169891357424,#
-2.321038007736206,-9.494720458984377,3.510270833969116,-0.287098228931427,1.803221106529236,1.854532241821289,#
-2.3186452388763428,-9.530611991882324,1.6534404754638672,-0.4911211729049682,1.7128156423568726,1.7177023887634275,left
-2.861815929412842,-9.626325607299805,0.2081755697727203,-0.4935645759105682,1.665169596672058,1.6309621334075928,left
-3.074777126312256,-9.33440113067627,0.4713860750198364,-0.3836120665073395,1.6016414165496826,1.5503302812576294,left
