accX,accY,accZ,gyrX,gyrY,gyrZ,annotation
9.425328254699709,-3.5461630821228027,0.0909272655844688,0.2052446752786636,-0.1429382413625717,0.1075091138482093,#
9.712467193603516,-3.5437703132629395,0.0263210479170084,0.2516690790653229,-0.1844758540391922,0.1148392781615257,#
9.958927154541016,-3.38823676109314,0.12921242415905,0.333522617816925,-0.21135313808918,0.128277912735939,#
9.978070259094238,-3.0317063331604004,-0.0382851622998714,0.3518480062484741,-0.1722589135169983,0.1563768982887268,#
9.30329418182373,-2.878565788269043,-0.2679961323738098,0.3066453039646148,-0.1185043603181839,0.1771456897258758,#
9.30329418182373,-2.878565788269043,-0.2679961323738098,0.1795890927314758,0.0623064190149307,0.2052446752786636,#
8.559126853942871,-2.995814085006714,-0.4259224236011505,0.1075091138482093,0.1380514800548553,0.2162399291992187,#
8.422735214233398,-3.3858442306518555,-0.246460735797882,0.0280989725142717,0.178367406129837,0.199136197566986,#
8.800802230834961,-3.5461630821228027,-0.236889436841011,0.0781884491443634,0.0366508327424526,0.1368297785520553,#
9.17886734008789,-3.436093330383301,-0.413958340883255,0.129499614238739,-0.0415376126766204,0.1197260618209838,#
9.116654396057127,-3.273381233215332,-0.5168496966362,0.2541124522686004,-0.1148392781615257,0.100178949534893,#
9.116654396057127,-3.273381233215332,-0.5168496966362,0.3323009014129638,-0.1014006435871124,0.0769667476415634,#
9.15733242034912,-3.38823676109314,-0.763310432434082,0.3665083348751068,-0.1050657257437706,0.0513111688196659,#
9.518648147583008,-3.35713005065918,-0.9188438653945924,0.4068242609500885,-0.155155211687088,-0.003665083553642,#
9.719645500183104,-3.201596736907959,-0.9188438653945924,0.4324798583984375,-0.1649287492036819,-0.0342074446380138,#
9.382257461547852,-3.192025184631348,-0.8901299238204956,0.4178195297718048,-0.1356080919504165,-0.040315918624401,#
9.382257461547852,-3.192025184631348,-0.8901299238204956,0.3848337531089782,-0.040315918624401,-0.0244338884949684,#
8.901299476623535,-3.06999135017395,-0.8398807048797607,0.333522617816925,-0.007330167107284,0.0048867780715227,#
8.762516975402832,-3.1728827953338623,-0.8303093910217285,0.3213056325912475,-0.0195471122860908,0.0085518611595034,#
8.693124771118164,-3.273381233215332,-0.7441678047180176,0.3506263196468353,-0.0781884491443634,-0.0012216945178806,#
8.858229637145996,-3.201596736907959,-0.5240281224250793,0.393385648727417,-0.1087308079004287,-0.0268772784620523,#
9.042476654052734,-2.7661027908325195,-1.0408778190612793,0.4337015450000763,-0.1404948681592941,-0.0268772784620523,#
9.042476654052734,-2.7661027908325195,-1.0408778190612793,0.333522617816925,-0.1612636744976043,0.0024433890357613,#
9.382257461547852,-2.5938196182250977,-1.3878371715545654,0.2480039745569229,-0.1331647038459777,0.0024433890357613,#
9.81057357788086,-2.8594231605529785,-1.761117458343506,0.0647498071193695,-0.0305423624813556,-0.0268772784620523,#
9.951749801635742,-3.3308091163635254,-1.730010747909546,-0.1062874197959899,0.0879620015621185,-0.0879620015621185,#
9.698110580444336,-3.5030922889709477,-1.6797614097595217,-0.1685938388109207,0.1722589135169983,-0.1160609796643257,#
9.327221870422363,-3.4815566539764404,-1.3208380937576294,-0.2675510942935943,0.3323009014129638,-0.1197260618209838,#
9.327221870422363,-3.4815566539764404,-1.3208380937576294,-0.3115321099758148,0.3909422159194946,-0.0757450610399246,#
9.243474006652832,-3.620340585708618,-0.8733802437782288,-0.3176405727863312,0.3628432750701904,-0.0513111688196659,#
9.262616157531738,-3.615554809570313,-0.6675975918769836,-0.31641885638237,0.261442631483078,0.0195471122860908,#
9.377471923828123,-3.32602334022522,-0.7776673436164856,-0.2687727808952331,0.1649287492036819,0.0415376126766204,#
9.652647018432615,-3.2446675300598145,-0.7680960297584534,-0.2651077210903168,0.1209477484226226,0.0537545569241046,#
9.652647018432615,-3.2446675300598145,-0.7680960297584534,-0.3017585575580597,0.0781884491443634,0.0525328628718853,#
9.731609344482422,-3.7232320308685294,-0.5335994362831116,-0.3176405727863312,0.0891837030649185,-0.0012216945178806,#
9.511469841003418,-3.9553356170654297,-0.3613162040710449,-0.2883199155330658,0.1331647038459777,-0.0280989725142717,#
9.432506561279297,-3.926621913909912,-0.2225324809551239,-0.2137965410947799,0.1685938388109207,-0.0879620015621185,#
9.250652313232422,-3.759124279022217,-0.0143569353967905,-0.1588202863931656,0.1600419729948043,-0.1075091138482093,#
9.121439933776855,-3.672982692718506,0.4713860750198364,0.0806318372488021,0.1343863904476165,-0.0598630309104919,#
9.121439933776855,-3.672982692718506,0.4713860750198364,0.1270562261343002,0.0806318372488021,-0.0342074446380138,#
9.329615592956545,-3.407379388809204,0.3086740970611572,0.1075091138482093,-0.0232121963053941,0.0586413368582725,#
9.375079154968262,-2.864208698272705,-0.0669990330934524,-0.0794101431965828,0.0623064190149307,0.1502684205770492,#
9.15493869781494,-2.861815929412842,-0.3373879790306091,-0.1637070626020431,0.1221694499254226,0.1832541674375534,#
9.035298347473145,-3.0556347370147705,-0.2440679222345352,-0.3347443044185638,0.175924003124237,0.2064663618803024,#
9.121439933776855,-3.2997026443481445,-0.2392822504043579,-0.393385648727417,0.1930277347564697,0.200357899069786,#
9.121439933776855,-3.2997026443481445,-0.2392822504043579,-0.4043808877468109,0.200357899069786,0.1918060332536697,#
9.176474571228027,-3.239881753921509,-0.3996013700962066,-0.3994940817356109,0.2162399291992187,0.1673721522092819,#
9.169296264648438,-3.2374887466430664,-0.5096712112426758,-0.3701734542846679,0.2480039745569229,0.1319430023431778,#
8.865407943725586,-3.445664882659912,-0.5431707501411438,-0.3408527672290802,0.2528907656669616,0.1123958900570869,#
8.74337387084961,-3.4672000408172607,-0.413958340883255,-0.2761029601097107,0.2137965410947799,0.0830752253532409,#
8.74337387084961,-3.4672000408172607,-0.413958340883255,-0.2418954968452453,0.1673721522092819,0.0745233595371246,#
8.858229637145996,-3.44327163696289,-0.3637090623378753,-0.1881409436464309,0.0904053896665573,0.0659715011715889,#
8.9850492477417,-3.4097721576690674,-0.4115655124187469,-0.155155211687088,0.0830752253532409,0.0513111688196659,#
8.894121170043945,-3.479164123535156,-0.4809573292732239,-0.1429382413625717,0.0830752253532409,0.0439810007810592,#
8.908478736877441,-3.5605196952819824,-0.4474578499794006,-0.1148392781615257,0.0574196390807628,0.0305423624813556,#
9.119047164916992,-3.524627923965454,-0.3637090623378753,-0.0965138673782348,-0.0012216945178806,0.0268772784620523,#
9.119047164916992,-3.524627923965454,-0.3637090623378753,-0.0818535313010215,-0.0195471122860908,0.0256555844098329,#
9.308080673217772,-3.696911096572876,-0.1842473447322845,-0.0464243926107883,-0.0195471122860908,0.0207688063383102,#
9.308080673217772,-3.615554809570313,-0.1938186287879943,-0.0329857505857944,-0.0232121963053941,0.0109952501952648,#
9.300901412963867,-3.6610186100006095,-0.114855483174324,-0.0293206684291362,-0.0354291386902332,0.0048867780715227,#
9.4061861038208,-3.586841106414795,-0.0885344371199607,-0.0635281130671501,-0.0561979450285434,0.0109952501952648,#
9.482755661010742,-3.572484016418457,-0.1363908797502517,-0.1062874197959899,-0.0378725305199623,0.0256555844098329,#
9.482755661010742,-3.572484016418457,-0.1363908797502517,-0.1160609796643257,-0.0219905003905296,0.0329857505857944,#
9.437292098999023,-3.5844480991363525,0.0023928226437419,-0.0940704718232154,-0.0012216945178806,0.0439810007810592,#
9.298508644104004,-3.689732551574707,0.0909272655844688,-0.0329857505857944,-0.0122169442474842,0.0415376126766204,#
9.28893756866455,-3.696911096572876,0.1196411252021789,0.007330167107284,-0.0280989725142717,0.0366508327424526,#
9.391828536987305,-3.658626079559326,0.2081755697727203,0.0916270837187767,-0.0671931952238082,0.0219905003905296,#
9.391828536987305,-3.658626079559326,0.2081755697727203,0.1356080919504165,-0.0769667476415634,0.0134386392310261,#
9.434900283813477,-3.586841106414795,0.2584248483181,0.2052446752786636,-0.0842969194054603,-0.0183254163712263,#
9.343972206115724,-3.38105845451355,0.2560320198535919,0.2480039745569229,-0.0879620015621185,-0.0476460866630077,#
9.430113792419434,-3.3930225372314453,0.2488535493612289,0.2663294076919555,-0.0879620015621185,-0.0635281130671501,#
9.69332504272461,-3.4719858169555664,0.3493521213531494,0.3017585575580597,-0.0916270837187767,-0.0904053896665573,#
9.722038269042969,-3.263810157775879,0.2943171858787536,0.2932066619396209,-0.0769667476415634,-0.0867403075098991,#
9.722038269042969,-3.263810157775879,0.2943171858787536,0.2418954968452453,-0.0464243926107883,-0.0733016654849052,#
9.535398483276367,-2.9790639877319336,0.1746760606765747,0.152711808681488,0.0366508327424526,-0.0574196390807628,#
9.226724624633787,-3.168097257614136,0.1076770275831222,0.0879620015621185,0.040315918624401,-0.0623064190149307,#
9.353544235229492,-3.2446675300598145,-0.1316052377223968,0.0855186134576797,0.0171037223190069,-0.0708582773804664,#
9.485149383544922,-3.3332018852233887,-0.0981057211756706,0.1185043603181839,-0.007330167107284,-0.0842969194054603,#
9.269794464111328,-3.2829525470733643,-0.1316052377223968,0.1795890927314758,0.0268772784620523,-0.0855186134576797,#
9.269794464111328,-3.2829525470733643,-0.1316052377223968,0.200357899069786,0.0329857505857944,-0.0855186134576797,#
9.061619758605955,-3.13220477104187,-0.1651047617197036,0.2162399291992187,-0.0061084721237421,-0.0940704718232154,#
9.087940216064451,-3.084348201751709,-0.2799602448940277,0.1893626451492309,-0.0720799788832664,-0.0965138673782348,#
9.262616157531738,-3.077169895172119,-0.2847459018230438,0.1734806150197982,-0.0818535313010215,-0.0928487852215766,#
9.159724235534668,-3.1657044887542725,-0.1962114423513412,0.1453816443681717,-0.0439810007810592,-0.0879620015621185,#
9.159724235534668,-3.1657044887542725,-0.1962114423513412,0.1404948681592941,-0.031764056533575,-0.0757450610399246,#
9.001798629760742,-3.146562099456787,-0.114855483174324,0.129499614238739,-0.0476460866630077,-0.0745233595371246,#
9.104689598083496,-3.1345977783203125,0.0406779870390892,0.1099525094032287,-0.0781884491443634,-0.0769667476415634,#
9.355937004089355,-3.086741209030152,0.0143569353967905,0.0867403075098991,-0.0830752253532409,-0.0708582773804664,#
9.28893756866455,-3.1106693744659424,-0.1076770275831222,0.0244338884949684,-0.0268772784620523,-0.0500894747674465,#
9.269794464111328,-3.1106693744659424,-0.0622133873403072,-0.0415376126766204,0.0293206684291362,-0.0232121963053941,#
9.269794464111328,-3.1106693744659424,-0.0622133873403072,-0.0659715011715889,0.0280989725142717,-0.0122169442474842,#
9.32004451751709,-3.2781667709350586,0.0693918615579605,-0.0855186134576797,0.0158820282667875,-0.0061084721237421,#
9.489934921264648,-3.328416109085083,0.0526420958340168,-0.0659715011715889,0.0097735561430454,-0.0061084721237421,#
9.418149948120115,-3.3332018852233887,0.0693918615579605,-0.0513111688196659,0.0171037223190069,-0.0061084721237421,#
9.336793899536133,-3.1752755641937256,0.1507478207349777,-0.0256555844098329,0.0329857505857944,-0.0085518611595034,#
9.336793899536133,-3.115455150604248,0.3038884699344635,-0.040315918624401,0.0207688063383102,-0.0048867780715227,#
9.336793899536133,-3.115455150604248,0.3038884699344635,-0.0647498071193695,0.0171037223190069,-0.0048867780715227,#
9.401400566101074,-3.060420036315918,0.3349951505661011,-0.129499614238739,0.0268772784620523,0.0085518611595034,#
9.430113792419434,-3.1202406883239746,0.430708110332489,-0.1954711079597473,0.0733016654849052,0.0122169442474842,#
9.506684303283691,-3.2829525470733643,0.882951557636261,-0.2089097648859024,0.0952921733260154,0.0134386392310261,#
9.743573188781738,-3.201596736907959,1.4524433612823486,-0.2480039745569229,0.0794101431965828,0.0452026948332786,#
9.743573188781738,-3.201596736907959,1.4524433612823486,-0.2492256760597229,0.0452026948332786,0.069636583328247,#
10.370492935180664,-3.201596736907959,2.021935224533081,-0.3237490355968475,0.0720799788832664,0.1453816443681717,#
10.564311981201172,-3.0245277881622314,1.761117458343506,-0.5106682777404785,0.3408527672290802,0.2418954968452453,#
10.84427261352539,-3.414557933807373,3.1082763671875,-0.634059488773346,0.5680879354476929,0.256555825471878,#
11.337193489074709,-3.376272678375244,5.154139995574951,-0.9382613897323608,0.8551861643791199,0.2541124522686004,#
12.46660614013672,-2.596212387084961,5.649453639984131,-1.1777135133743286,0.8502993583679199,0.3371876776218414,#
12.46660614013672,-2.596212387084961,5.649453639984131,-1.485580563545227,0.8820634484291077,0.4434750974178314,#
13.131810188293455,-0.861416220664978,4.840680122375488,-2.126970052719116,1.392731785774231,0.7965447902679443,#
12.92602825164795,-1.6151552200317385,6.154339790344238,-2.4800398349761963,2.310224294662476,1.1508362293243408,#
12.409178733825684,-3.44327163696289,6.67836856842041,-2.718270301818848,2.5997660160064697,1.3011046648025513,#
13.375877380371094,-5.493920803070068,5.769095420837402,-3.0933306217193604,2.912519693374634,1.6395140886306765,#
13.375877380371094,-5.493920803070068,5.769095420837402,-3.483051061630249,3.398754119873047,2.059777021408081,#
13.823335647583008,-6.369694232940674,4.721039295196533,-3.5221450328826904,3.85566782951355,2.2442526817321777,#
13.060026168823242,-7.432106971740723,3.0388848781585693,-3.508706331253052,4.687641620635986,2.6449685096740723,#
12.179466247558594,-8.628519058227539,3.2518460750579834,-3.445178270339966,5.159215927124023,2.837996244430542,#
11.04766082763672,-9.23390293121338,2.620140790939331,-3.316900491714477,5.858025074005127,3.0395758152008057,#
9.609575271606444,-9.016156196594238,0.9499505758285522,-3.2582592964172363,6.165892124176025,3.18862247467041,#
9.609575271606444,-9.016156196594238,0.9499505758285522,-3.1727404594421387,6.250188827514648,3.205726385116577,#
7.719245910644531,-9.45164966583252,1.3974084854125977,-2.5557849407196045,6.297835350036621,3.127537727355957,#
6.941578388214111,-10.935199737548828,2.179861307144165,-0.943148136138916,5.9178876876831055,2.901524305343628,#
7.070791244506836,-9.119047164916992,1.7730815410614014,-0.4068242609500885,5.887345314025879,2.823336124420166,#
4.701896190643311,-5.601597785949707,0.5359922647476196,-0.8796200752258301,5.3876729011535645,2.7927937507629395,#
4.804787635803223,-6.716653347015381,-1.3160523176193235,-2.8050105571746826,3.9350779056549072,2.71460509300232,#
4.804787635803223,-6.716653347015381,-1.3160523176193235,-3.6345410346984863,3.330339193344116,2.5667803287506104,#
5.271388053894043,-9.7938232421875,-4.096512317657471,-3.955846786499024,2.178281307220459,2.4262852668762207,#
4.950750350952148,-9.774680137634276,-4.3310089111328125,-3.0676748752593994,1.4037269353866575,2.4494974613189697,#
4.59421968460083,-8.334200859069824,-4.761716842651367,-2.505695581436157,1.0983033180236816,2.425063371658325,#
4.2137603759765625,-6.6352972984313965,-5.400600433349609,-1.6236319541931152,0.6817055344581604,2.484926700592041,#
3.397808313369751,-6.860222339630127,-5.9030938148498535,-0.998124361038208,0.3249707520008087,2.5411245822906494,#
3.0652055740356445,-7.39860725402832,-5.740381240844727,-0.8197570443153381,0.1649287492036819,2.5264639854431152,#
2.914458036422729,-6.939186096191406,-5.8337016105651855,-0.5949652194976807,-0.1343863904476165,2.4482758045196533,#
2.6632115840911865,-6.955935001373291,-5.154139995574951,-0.6426112651824951,-0.261442631483078,2.3566486835479736,#
2.014756679534912,-7.061219692230225,-4.835894107818604,-0.9174925684928894,-0.6682668924331665,2.123305082321167,#
2.014756679534912,-7.061219692230225,-4.835894107818604,-1.3585243225097656,-1.1679399013519287,1.815437912940979,#
1.5960125923156738,-7.412964344024658,-3.720839262008667,-1.4415994882583618,-1.4477078914642334,1.6627261638641355,#
1.5984054803848269,-7.180860996246338,-4.034298896789551,-1.381736397743225,-1.8484238386154173,1.3316470384597778,left
2.297109842300415,-7.858029365539551,-5.345565319061279,-1.5271180868148804,-2.1733944416046143,1.0201148986816406,left
2.6560330390930176,-8.882158279418945,-6.790830135345459,-1.7103723287582395,-2.3395450115203857,0.8478559851646423,left
3.687339782714844,-9.31765079498291,-6.714260101318359,-2.230814218521118,-2.7097182273864746,0.546097457408905,left
3.687339782714844,-9.31765079498291,-6.714260101318359,-2.8331096172332764,-3.1947312355041504,0.2675510942935943,left
4.118047714233398,-10.937592506408691,-5.773881435394287,-3.0078117847442627,-3.569791078567505,0.0561979450285434,left
5.240281581878662,-12.088539123535156,-5.419743537902832,-2.963830947875977,-4.559363842010498,-0.365286648273468,left
5.292923927307129,-12.80160140991211,-4.642076015472412,-2.9345102310180664,-5.771284580230713,-0.6792621612548828,left
5.7619171142578125,-12.284751892089844,-2.8761727809906006,-2.8893074989318848,-6.438329696655273,-0.8710681796073914,left
5.7619171142578125,-12.284751892089844,-2.8761727809906006,-3.070118188858032,-7.765090465545654,-1.09219491481781,left
6.2189459800720215,-12.332609176635742,-1.6773687601089478,-3.239933729171753,-8.393040657043457,-1.220472812652588,left
6.618547439575195,-12.138789176940918,-2.376072883605957,-4.035256862640381,-9.5487642288208,-1.4635900259017944,left
5.412564754486084,-12.437891960144045,-6.774080753326416,-5.254508018493652,-10.567657470703123,-1.6553959846496582,left
5.42692232131958,-14.718252182006836,-9.954142570495604,-5.432875633239746,-11.016018867492676,-1.859418988227844,left
5.546562671661377,-18.33380699157715,-10.533205032348633,-4.635108470916748,-10.537115097045898,-2.2576913833618164,left
5.546562671661377,-18.33380699157715,-10.533205032348633,-2.401851177215576,-10.466257095336914,-2.696279764175415,left
6.463014125823975,-15.835700035095217,-7.774280071258545,-1.4342693090438845,-10.768014907836914,-2.5350160598754883,left
8.60459041595459,-12.42832088470459,-5.883951187133789,0.445918470621109,-10.367300033569336,-1.7824522256851196,left
10.24606704711914,-9.109475135803224,-4.199403762817383,1.0616525411605835,-8.515210151672363,-0.5986303091049194,left
10.499706268310549,-6.62333345413208,-1.509871006011963,0.256555825471878,-7.023521423339844,-0.4214845895767212,left
9.896714210510254,-9.954142570495604,1.325623631477356,-0.6316159963607788,-5.741963863372803,-0.416597843170166,left
9.896714210510254,-9.954142570495604,1.325623631477356,-0.7928797006607056,-5.285050392150879,-0.3787252902984619,left
10.033105850219728,-13.086347579956056,4.498506546020508,-0.3481829464435577,-4.564250469207764,-0.4703523814678192,left
9.657432556152344,-12.0335054397583,5.340780735015869,0.1966928243637085,-3.5966684818267822,-0.3799469769001007,left
8.066205024719238,-9.643074989318848,5.127819538116455,0.3469612300395965,-3.073783159255981,-0.3494046330451965,left
5.749952793121338,-8.427520751953125,4.969892501831055,0.1954711079597473,-2.093984365463257,-0.2785463333129883,left
5.749952793121338,-8.427520751953125,4.969892501831055,0.040315918624401,-1.6712781190872192,-0.2247917801141739,left
3.7184462547302246,-8.468198776245117,4.591826438903809,-0.3066453039646148,-0.9846857786178588,-0.21135313808918,left
2.311466693878174,-9.011369705200195,3.3308091163635254,-0.4349232316017151,-0.6438329815864563,-0.1466033309698104,#
1.84965181350708,-9.226724624633787,2.8761727809906006,-0.5167768001556396,-0.522885262966156,-0.1197260618209838,#
1.4261221885681152,-9.74835968017578,2.2995026111602783,-0.517998456954956,-0.1466033309698104,-0.100178949534893,#
0.4211367666721344,-10.07139015197754,2.0195422172546387,-0.5008947253227234,0.2944283783435821,-0.0305423624813556,#
0.4211367666721344,-10.07139015197754,2.0195422172546387,-0.4874561131000519,0.4569137394428253,-0.0109952501952648,#
-0.4785645008087158,-10.356135368347168,1.5649060010910034,-0.4043808877468109,0.5705313086509705,0.0048867780715227,#
-0.6173481941223145,-10.53081226348877,1.2514461278915403,-0.3310791850090027,0.6157339811325073,0.0134386392310261,#
-0.7704889178276062,-10.322636604309082,0.5383850932121277,-0.3029802441596985,0.6878139972686768,0.0219905003905296,#
-1.196411371231079,-10.1336030960083,0.0143569353967905,-0.2553341388702392,0.9028322100639344,0.0012216945178806,#
-1.9812570810317995,-10.076176643371582,-0.3326023519039154,-0.2980934381484985,1.022558331489563,-0.0219905003905296,#
-1.9812570810317995,-10.076176643371582,-0.3326023519039154,-0.3115321099758148,0.98590749502182,-0.0207688063383102,#
-2.2612173557281494,-10.447062492370604,-0.4115655124187469,-0.3066453039646148,0.8478559851646423,-0.0134386392310261,#
-2.2707886695861816,-10.796415328979492,-0.2273181527853012,-0.155155211687088,0.7415685653686523,-0.0097735561430454,#
-2.2229323387146,-10.717452049255373,-0.397208571434021,-0.0769667476415634,0.684148907661438,-0.0012216945178806,#
-2.416750907897949,-9.93978500366211,-0.7010970115661621,-0.0879620015621185,0.6267292499542236,0.0195471122860908,#
-2.416750907897949,-9.93978500366211,-0.7010970115661621,-0.1918060332536697,0.6108472347259521,0.0268772784620523,#
-2.6703903675079346,-9.93260669708252,-0.7465606331825256,-0.3481829464435577,0.5827482342720032,0.0293206684291362,#
-2.895315170288086,-10.918450355529783,-0.7585247755050659,-0.3188622593879699,0.4960079491138458,0.0280989725142717,#
-2.8115665912628174,-10.939985275268556,-0.6556334495544434,-0.2431172132492065,0.4190412163734436,0.0476460866630077,#
-2.675175428390503,-10.69113063812256,-0.7202396392822266,-0.0561979450285434,0.2761029601097107,0.0928487852215766,#
-2.723031997680664,-10.169495582580566,-0.9451649785041808,-0.0085518611595034,0.2406738102436065,0.1514901220798492,#
-2.723031997680664,-10.169495582580566,-0.9451649785041808,0.003665083553642,0.235787034034729,0.1490467190742492,#
-2.8809585571289062,-9.93978500366211,-1.043270707130432,-0.040315918624401,0.152711808681488,0.1514901220798492,#
-2.565105676651001,-9.609575271606444,-0.9499505758285522,-0.1649287492036819,0.0537545569241046,0.1698155403137207,#
-2.4047868251800537,-9.626325607299805,-0.794417142868042,-0.2162399291992187,0.040315918624401,0.178367406129837,#
-2.687139749526977,-9.934999465942385,-0.7034898400306702,-0.2296785563230514,0.0745233595371246,0.1893626451492309,#
-2.687139749526977,-9.934999465942385,-0.7034898400306702,-0.2015795856714248,0.0366508327424526,0.1673721522092819,#
-2.8809585571289062,-9.91585636138916,-0.7968099117279053,-0.1942494213581085,-0.0207688063383102,0.175924003124237,#
-2.71346116065979,-10.17906665802002,-0.8925228118896484,-0.1038440242409706,-0.1197260618209838,0.1563768982887268,#
-2.644068956375122,-10.44467067718506,-1.0408778190612793,-0.0305423624813556,-0.1417165547609329,0.1270562261343002,#
-2.7972097396850586,-10.39202880859375,-1.1437692642211914,0.0989572554826736,-0.155155211687088,0.1123958900570869,#
-2.622533798217773,-10.083355903625488,-1.0504491329193115,0.1954711079597473,-0.2137965410947799,0.1136175915598869,#
-2.622533798217773,-10.083355903625488,-1.0504491329193115,0.2064663618803024,-0.2467822879552841,0.1246128380298614,#
-2.569891452789306,-9.468399047851562,-0.760917603969574,0.1148392781615257,-0.2699944972991943,0.1563768982887268,#
-2.6081764698028564,-9.492327690124512,-0.7154539823532104,0.0354291386902332,-0.2736595571041107,0.1722589135169983,#
-2.567498683929444,-9.628718376159668,-0.7345964908599854,-0.0134386392310261,-0.2834331095218658,0.175924003124237,#
-2.493321180343628,-9.650253295898438,-0.7513462901115417,-0.0610847249627113,-0.3200839459896087,0.1624853760004043,#
-2.376072883605957,-9.162117958068848,-0.8087739944458008,-0.1343863904476165,-0.3225273489952087,0.1624853760004043,#
-2.376072883605957,-9.162117958068848,-0.8087739944458008,-0.1795890927314758,-0.3054236173629761,0.1710372269153595,#
-2.3330020904541016,-9.379864692687988,-0.7992027401924133,-0.258999228477478,-0.2785463333129883,0.1771456897258758,#
-2.526820659637451,-9.437292098999023,-0.6987042427062988,-0.2651077210903168,-0.2651077210903168,0.152711808681488,#
-2.438286304473877,-9.602396965026855,-0.5718846321105957,-0.2394521236419677,-0.2748812437057495,0.129499614238739,#
-2.3306093215942383,-9.535398483276367,-0.5694918036460876,-0.2028012871742248,-0.3029802441596985,0.1160609796643257,#
-2.3306093215942383,-9.535398483276367,-0.5694918036460876,-0.1673721522092819,-0.3078669905662536,0.0977355539798736,#
-2.25403904914856,-9.525827407836914,-0.4594219326972961,-0.1172826737165451,-0.2956500649452209,0.0488677769899368,#
-2.251646041870117,-9.214759826660156,-0.3373879790306091,-0.1014006435871124,-0.2638860046863556,0.0085518611595034,#
-2.2205395698547363,-9.332008361816406,-0.2919243574142456,-0.0842969194054603,-0.2516690790653229,-0.0085518611595034,#
-2.0243279933929443,-9.262616157531738,-0.2584248483181,-0.0537545569241046,-0.2162399291992187,-0.0354291386902332,#
-1.8927226066589355,-9.15733242034912,-0.1842473447322845,-0.0354291386902332,-0.1563768982887268,-0.0610847249627113,#
-1.8927226066589355,-9.15733242034912,-0.1842473447322845,-0.0354291386902332,-0.1148392781615257,-0.0720799788832664,#
-1.8113667964935305,-9.365508079528809,-0.0933200791478157,-0.007330167107284,-0.0219905003905296,-0.0952921733260154,#
-1.7491532564163208,-9.643074989318848,0.0047856452874839,0.0427593067288398,0.0806318372488021,-0.1270562261343002,#
-1.5361920595169067,-9.750752449035645,-0.2679961323738098,0.0659715011715889,0.1123958900570869,-0.1502684205770492,#
-1.3208380937576294,-9.480363845825195,-0.2033899277448654,0.0427593067288398,0.1869192570447921,-0.1722589135169983,#
-1.124626636505127,-9.509077072143556,-0.0550349205732345,0.0012216945178806,0.2968717515468597,-0.1747023165225982,#
-1.124626636505127,-9.509077072143556,-0.0550349205732345,-0.0293206684291362,0.3530696928501129,-0.1747023165225982,#
-0.8303093910217285,-9.09272575378418,0.3445664942264557,-0.0452026948332786,0.4752391576766968,-0.1685938388109207,#
-0.4618147313594818,-9.236295700073242,0.6747759580612183,-0.0085518611595034,0.6035171151161194,-0.1771456897258758,#
0.2991028428077698,-9.528220176696776,1.1533405780792236,0.0109952501952648,0.6707102656364441,-0.1795890927314758,#
1.1198409795761108,-9.485149383544922,1.8616160154342647,0.0940704718232154,0.8295305371284485,-0.2211267054080963,#
1.1198409795761108,-9.485149383544922,1.8616160154342647,0.1075091138482093,0.929709494113922,-0.2370087206363678,#
1.804188132286072,-9.09272575378418,2.3066811561584477,0.1160609796643257,1.2510151863098145,-0.2663294076919555,#
2.3473589420318604,-9.087940216064451,2.7589242458343506,0.1160609796643257,1.6309621334075928,-0.2907632887363434,#
3.1202406883239746,-9.726823806762695,3.716053485870361,0.1954711079597473,1.7787871360778809,-0.2736595571041107,right
4.687539577484131,-9.968499183654783,4.59421968460083,0.2724378705024719,2.048781633377075,-0.2418954968452453,right
6.802794933319092,-10.968698501586914,4.048655986785889,0.2736595571041107,2.4494974613189697,-0.2748812437057495,right
8.968299865722656,-13.512269973754885,3.34995174407959,0.2553341388702392,2.743925809860229,-0.2699944972991943,right
10.810771942138672,-18.2165584564209,3.806980848312378,0.4874561131000519,3.6467580795288086,-0.2235700935125351,right
13.067204475402832,-19.506290435791016,5.173282146453857,1.2705622911453247,4.471402168273926,-0.0830752253532409,right
14.545969009399414,-16.780864715576172,2.785245418548584,1.6578394174575806,4.881891250610352,0.0342074446380138,right
15.416956901550291,-14.3330078125,1.931007981300354,2.3615353107452397,5.938656806945801,0.152711808681488,right
15.416956901550291,-14.3330078125,1.931007981300354,2.309002637863159,7.589166164398193,0.3921639025211334,right
16.457834243774414,-15.936199188232422,-1.3710873126983645,1.964484691619873,8.576294898986816,0.5644228458404541,right
17.32642936706543,-19.377077102661133,-3.783052444458008,1.0714260339736938,10.60552978515625,1.313321590423584,right
17.094324111938477,-19.793428421020508,-4.163511276245117,0.4935645759105682,13.139324188232422,2.210045337677002,right
15.270994186401367,-25.42613410949707,-4.106083393096924,0.5436540246009827,14.027495384216309,2.4458322525024414,right
15.270994186401367,-25.42613410949707,-4.106083393096924,5.640563488006592,11.924960136413574,2.514247179031372,right
17.25225067138672,-22.30349922180176,-6.154339790344238,8.006985664367676,10.015451431274414,1.8496454954147337,right
16.086946487426758,-15.972090721130373,-8.640481948852539,7.640477180480957,9.289765357971191,1.0702043771743774,right
9.530611991882324,-15.615560531616213,-8.432307243347168,6.531178951263428,8.654483795166016,0.9174925684928894,right
6.020341873168945,-17.04407501220703,-5.843273162841797,4.272265911102295,7.401025295257568,0.9907942414283752,right
4.867001533508301,-17.828922271728516,-6.419942855834961,3.0359108448028564,6.073043346405029,0.9590301513671876,right
4.867001533508301,-17.828922271728516,-6.419942855834961,2.620534658432007,5.534276008605957,0.9773555994033812,right
3.232703685760498,-15.402599334716797,-8.863015174865723,2.028012752532959,4.481175422668457,1.0250016450881958,right
1.8664016723632808,-13.24666690826416,-9.425328254699709,1.4183871746063232,3.69562578201294,1.200925588607788,right
1.275374412536621,-12.598210334777832,-9.035298347473145,1.141062617301941,3.347442865371704,1.2363548278808594,right
0.784845769405365,-11.78465175628662,-7.719245910644531,0.8612945675849915,2.6865062713623047,1.2913310527801514,right
-0.4618147313594818,-9.820144653320312,-6.573083877563477,0.7831061482429504,2.080545663833618,1.3463072776794434,right
-0.4618147313594818,-9.820144653320312,-6.573083877563477,0.8393040895462036,1.7421363592147827,1.3805147409439087,right
-1.4763716459274292,-8.886943817138672,-5.886343479156494,1.1459494829177856,1.2302463054656982,1.3878449201583862,right
-1.8472589254379272,-7.829315185546875,-5.134997367858887,1.435490965843201,1.0323318243026731,1.3524158000946045,right
-2.368894338607788,-6.64486837387085,-4.505684852600098,1.5002408027648926,0.9541434049606324,1.3292036056518557,right
-2.8283162117004395,-5.974878311157227,-3.6610186100006095,1.4122787714004517,0.8124268054962158,1.2595670223236084,right
-2.8283162117004395,-5.974878311157227,-3.6610186100006095,1.3194299936294556,0.7427902817726135,1.2876659631729126,right
-3.9553356170654297,-5.816952228546143,-3.7878382205963135,1.0274450778961182,0.8099834322929382,1.0616525411605835,#
-5.0225348472595215,-5.845665454864502,-3.538984537124634,0.7623373866081238,0.7207997441291809,0.7965447902679443,#
-5.235496044158936,-5.513063907623291,-2.957528829574585,0.6047387719154358,0.6694886088371277,0.7354600429534912,#
-5.852844715118408,-5.120640754699707,-2.1056838035583496,0.256555825471878,0.5375455617904663,0.5790832042694092,#
-6.376872539520264,-5.520241737365723,-1.2969098091125488,0.0219905003905296,0.2895416021347046,0.4141544103622436,#
-6.376872539520264,-5.520241737365723,-1.2969098091125488,-0.0647498071193695,0.1722589135169983,0.3237490355968475,#
-6.6352972984313965,-5.994020462036133,-1.5792629718780518,-0.2651077210903168,0.003665083553642,0.2247917801141739,#
-7.106683254241943,-5.905486583709717,-1.7515461444854736,-0.4202629029750824,-0.1539334952831268,0.175924003124237,#
-7.427321434020996,-6.173482418060303,-1.0193424224853516,-0.4434750974178314,-0.2406738102436065,0.1417165547609329,#
-7.465606689453125,-6.5491557121276855,-0.3206382095813751,-0.3115321099758148,-0.342074453830719,0.1111741960048675,#
-7.465606689453125,-6.5491557121276855,-0.3206382095813751,-0.0048867780715227,-0.4385882914066314,0.1075091138482093,#
-7.558926582336426,-6.872186660766602,0.0622133873403072,0.1514901220798492,-0.4935645759105682,0.1319430023431778,#
-7.621140003204346,-6.953542709350586,-0.0957129001617431,0.4911211729049682,-0.6316159963607788,0.1661504507064819,#
-7.575676441192627,-6.640083312988281,-0.3397807776927948,0.5937435030937195,-0.7061393857002258,0.1844758540391922,#
-7.465606689453125,-6.32662296295166,-0.5694918036460876,0.7159129977226257,-0.8686248064041138,0.2162399291992187,#
-6.953542709350586,-6.503692150115967,-0.9858429431915284,1.0286667346954346,-1.115407109260559,0.1905843466520309,#
-6.953542709350586,-6.503692150115967,-0.9858429431915284,1.1777135133743286,-1.2461284399032593,0.2076880484819412,#
-5.9198431968688965,-5.8097734451293945,-1.727617859840393,1.3792930841445925,-1.5442218780517578,0.2516690790653229,#
-5.146961212158203,-5.051248073577881,-1.801795244216919,1.408613681793213,-1.919282078742981,0.2076880484819412,#
-4.654040336608887,-4.847858428955078,-1.6654045581817627,1.368297815322876,-2.1391870975494385,0.1710372269153595,#
-3.9912283420562735,-4.986642360687256,-1.0671988725662231,1.408613681793213,-2.7463691234588623,0.1148392781615257,#
-3.074777126312256,-5.228317260742188,-1.0456634759902954,1.586981177330017,-3.4549520015716557,-0.0207688063383102,#
-3.074777126312256,-5.228317260742188,-1.0456634759902954,1.593089580535889,-3.76404070854187,-0.0574196390807628,#
-2.2707886695861816,-4.931607723236084,-0.4833501875400543,1.382958173751831,-4.385883331298828,-0.130721315741539,#
-1.6247265338897705,-4.163511276245117,1.3950155973434448,1.012784719467163,-5.024829387664795,-0.2406738102436065,#
-0.6269195079803467,-3.744767427444458,3.2829525470733643,0.9969027042388916,-5.311927795410156,-0.2834331095218658,#
-0.1890329867601394,-4.792823314666748,3.0005996227264404,1.549108624458313,-6.0767083168029785,-0.5986303091049194,#
-0.1890329867601394,-4.792823314666748,3.0005996227264404,2.035343170166016,-6.280731201171875,-0.8246437907218933,#
0.3326023519039154,-6.283552646636963,1.37587308883667,2.0011355876922607,-6.157340049743652,-0.7879929542541504,#
0.6101697683334351,-4.701896190643311,2.021935224533081,1.525896430015564,-6.179330825805664,-0.5338804721832275,#
1.3040882349014282,-1.9932212829589844,2.622533798217773,1.401283621788025,-6.4407734870910645,-0.4789042472839355,#
3.115455150604248,0.6029912829399109,1.160519003868103,0.873511552810669,-6.900130748748779,-0.3567348122596741,#
4.802394866943359,0.4761717021465301,-1.0719845294952393,0.342074453830719,-6.7913994789123535,-0.1356080919504165,#
4.802394866943359,0.4761717021465301,-1.0719845294952393,-0.0769667476415634,-6.694885730743408,-0.100178949534893,#
6.695117950439453,-1.526620864868164,3.3930225372314453,-0.7342383861541748,-7.140804290771484,-0.3579564988613128,#
10.794021606445312,-5.032106399536133,6.831508636474609,-0.4654656052589416,-8.036306381225586,-0.7110261917114258,#
15.30210018157959,-5.613561630249023,7.121039390563965,-0.4960079491138458,-7.941014289855957,-0.9443698525428772,#
13.44766330718994,-3.074777126312256,3.933800458908081,-0.3970507085323334,-6.449325084686279,-1.1606097221374512,#
12.787243843078612,-2.100898265838623,3.328416109085083,-0.5106682777404785,-5.5269455909729,-0.9920158982276917,#
12.787243843078612,-2.100898265838623,3.328416109085083,-0.5754181146621704,-5.632011890411377,-1.1215155124664309,#
16.261621475219727,-3.452842950820923,5.924628734588623,-0.5253286361694336,-5.843364715576172,-1.3585243225097656,#
19.48475456237793,-5.319244384765625,6.764510154724121,-0.5204418301582336,-5.0297160148620605,-1.2155860662460327,#
17.525033950805664,-5.441278457641602,6.276373863220215,-0.4825693070888519,-4.4274210929870605,-1.0384403467178345,#
15.385849952697754,-5.376672744750977,5.264209270477295,-0.2015795856714248,-3.673635482788086,-0.9639169573783876,#
15.385849952697754,-5.376672744750977,5.264209270477295,-0.0122169442474842,-3.5820083618164062,-0.9541434049606324,#
15.718451499938965,-4.948357105255127,5.216352939605713,0.2895416021347046,-3.3914239406585693,-0.9174925684928894,#
16.252050399780273,-4.548755645751953,5.300102710723877,0.3946073353290558,-2.9381754398345947,-0.8270871639251709,#
15.201601028442385,-4.2376885414123535,5.142175674438477,0.3799469769001007,-2.600987434387207,-0.7598939538002014,#
13.651052474975586,-3.936193227767944,3.8907296657562256,0.3115321099758148,-1.8533105850219729,-0.5570926666259766,#
12.63888931274414,-3.9840497970581055,3.239881753921509,0.2150182276964187,-1.408613681793213,-0.416597843170166,#
12.63888931274414,-3.9840497970581055,3.239881753921509,0.1930277347564697,-1.2840008735656738,-0.3530696928501129,#
12.44507122039795,-4.35254430770874,3.397808313369751,0.2528907656669616,-1.1129636764526367,-0.2137965410947799,#
12.533604621887209,-4.864608287811279,4.802394866943359,0.5803048610687256,-0.9736905097961426,-0.0989572554826736,#
12.471391677856444,-5.01296329498291,5.044069766998291,0.7501204013824463,-0.910162389278412,-0.0525328628718853,#
12.399606704711914,-4.972285747528076,4.989035129547119,1.1227372884750366,-0.7293516397476196,0.0146603342145681,#
12.0933256149292,-4.910072326660156,5.462814331054688,1.5442218780517578,-0.4618005454540252,0.0219905003905296,#
12.0933256149292,-4.910072326660156,5.462814331054688,1.7812305688858032,-0.3701734542846679,0.0085518611595034,#
12.052647590637209,-4.847858428955078,5.8265228271484375,2.3163328170776367,-0.2761029601097107,-0.0891837030649185,#
12.64606761932373,-4.436293125152588,5.517848491668701,2.5826621055603027,-0.1844758540391922,-0.178367406129837,#
13.349557876586914,-3.775874137878418,5.477170467376709,2.5667803287506104,-0.0439810007810592,-0.2162399291992187,#
13.208380699157717,-3.555734634399414,6.111269474029541,2.307780742645264,0.4275930821895599,-0.1930277347564697,#
13.208380699157717,-3.555734634399414,6.111269474029541,2.230814218521118,0.5717529654502869,-0.1649287492036819,#
13.375877380371094,-4.455435752868652,6.295516490936279,2.180724620819092,0.6707102656364441,-0.21135313808918,#
14.718252182006836,-5.982056617736816,7.858029365539551,2.5130257606506348,0.7110261917114258,-0.4324798583984375,#
17.25225067138672,-7.922636032104492,9.229117393493652,2.659628868103028,0.6438329815864563,-0.4581354260444641,up
20.152353286743164,-8.123632431030273,9.329615592956545,2.837996244430542,0.4911211729049682,-0.3518480062484741,up
23.43769836425781,-6.285945415496826,8.054241180419922,2.9870429039001465,0.4972296357154846,-0.3237490355968475,up
23.43769836425781,-6.285945415496826,8.054241180419922,3.101882219314575,0.767224133014679,-0.3823903799057007,up
29.19243621826172,-5.532205581665039,7.8795647621154785,3.197174549102783,1.837428450584412,-0.3445178270339966,up
32.67638397216797,-3.4097721576690674,8.087740898132324,3.5111501216888428,3.1165428161621094,-0.4068242609500885,up
34.0642204284668,0.3996013700962066,4.436293125152588,3.597890138626098,3.683408975601196,-0.4129327237606048,up
31.97289657592773,-0.4666004180908203,1.2705888748168943,3.1776275634765625,5.114012718200684,-0.1844758540391922,up
31.97289657592773,-0.4666004180908203,1.2705888748168943,2.26990818977356,6.890356540679932,0.0610847249627113,up
30.977481842041016,-3.804587841033936,-0.4402793645858764,1.8264333009719849,7.611156940460205,0.1514901220798492,up
31.319656372070312,-8.9850492477417,-1.7994027137756348,1.172826647758484,8.87927532196045,0.2724378705024719,up
29.120651245117188,-12.351749420166016,-4.455435752868652,0.9969027042388916,10.937830924987791,0.5803048610687256,up
25.777877807617188,-15.079567909240724,-3.912264823913574,1.0970816612243652,12.102105140686035,0.730573296546936,up
25.777877807617188,-15.079567909240724,-3.912264823913574,2.210045337677002,13.999397277832031,0.3921639025211334,up
21.61436653137207,-12.40439224243164,-3.304487943649292,2.4543843269348145,14.820375442504885,0.2162399291992187,up
16.314266204833984,-6.556333541870117,-1.4380863904953003,3.2765846252441406,15.45565700531006,-0.0085518611595034,up
13.758729934692385,-2.2755744457244877,0.7250252366065979,2.8819773197174072,13.49239444732666,0.3188622593879699,up
15.282957077026367,-5.168497085571289,-3.744767427444458,2.6168696880340576,12.300020217895508,0.6621583700180054,up
12.930814743041992,-8.358129501342773,-8.331808090209961,2.18438982963562,10.192597389221191,1.0140063762664795,up
12.930814743041992,-8.358129501342773,-8.331808090209961,2.042673110961914,9.30931282043457,0.9333745837211608,up
8.130810737609863,-5.874379634857178,-9.387042999267578,1.910730242729187,9.141940116882324,1.1813786029815674,up
5.831308364868164,-3.905086755752564,-9.542576789855955,1.8508671522140503,8.11938190460205,1.5759859085083008,up
4.811966419219971,-2.806780815124512,-10.695917129516602,1.7274760007858276,6.7596354484558105,1.594311237335205,up
3.452842950820923,-0.851844847202301,-10.669595718383787,1.6077499389648438,6.126797676086426,1.650509238243103,up
3.452842950820923,-0.851844847202301,-10.669595718383787,1.5784293413162231,4.940532207489014,1.8166598081588743,up
1.6462620496749878,0.882951557636261,-11.988040924072266,1.830098390579224,4.0022711753845215,1.8423151969909668,#
-0.5814558863639832,3.263810157775879,-12.361321449279783,1.7042638063430786,3.716394662857056,1.7800087928771973,#
-3.211168050765991,4.448256969451904,-11.85165023803711,1.5539953708648682,3.3608815670013428,1.645622491836548,#
-4.548755645751953,4.424329280853272,-11.018948554992676,1.5405566692352295,3.081113338470459,1.5283397436141968,#
-5.233102798461914,4.201796531677246,-10.564311981201172,1.3805147409439087,2.340766429901123,1.2265812158584597,#
-5.233102798461914,4.201796531677246,-10.564311981201172,1.115407109260559,1.5613255500793457,0.8661814332008362,#
-6.321837425231934,4.979463577270508,-10.418350219726562,0.9688037633895874,1.2827792167663574,0.790436327457428,#
-6.965506553649902,5.553741931915283,-9.592825889587402,0.730573296546936,0.9309312105178832,0.660936713218689,#
-6.819544315338135,5.070391178131104,-8.094919204711914,0.6536065340042114,0.494786262512207,0.3909422159194946,#
-6.786045074462891,4.60857629776001,-6.881758213043213,0.5644228458404541,0.282211422920227,0.3017585575580597,#
-7.434500217437744,4.299902439117432,-6.003591537475586,0.4532486498355865,-0.0219905003905296,0.2125748395919799,#
-7.434500217437744,4.299902439117432,-6.003591537475586,0.416597843170166,-0.1453816443681717,0.1600419729948043,#
-7.484748840332031,4.426721572875977,-5.927021503448486,0.3408527672290802,-0.1832541674375534,0.129499614238739,#
-7.2813591957092285,3.711267709732056,-5.697310447692871,0.2174616158008575,-0.4104893505573272,0.0525328628718853,#
-7.484748840332031,3.797409296035767,-4.907679080963135,0.2174616158008575,-0.4813476204872131,-0.0232121963053941,#
-7.755138397216797,4.3070807456970215,-4.441079139709473,0.2137965410947799,-0.4300364553928375,-0.003665083553642,#
-7.755138397216797,4.3070807456970215,-4.441079139709473,0.1637070626020431,-0.3567348122596741,0.0439810007810592,#
-7.831708431243896,4.07258415222168,-4.47697114944458,0.0549762547016143,-0.42270627617836,-0.003665083553642,#
-7.903492927551269,3.649054527282715,-4.780859470367432,-0.0122169442474842,-0.4410317242145538,0.0012216945178806,#
-7.877171993255615,3.270988702774048,-4.043870449066162,-0.0342074446380138,-0.4874561131000519,0.0171037223190069,#
-8.011170387268066,3.675375461578369,-3.3068809509277344,-0.0085518611595034,-0.5143333673477173,0.0122169442474842,#
-8.286344528198242,3.950549840927124,-3.13938307762146,0.0146603342145681,-0.4703523814678192,0.0390942245721817,#
-8.286344528198242,3.950549840927124,-3.13938307762146,-0.0708582773804664,-0.4104893505573272,0.0476460866630077,#
-8.439485549926758,3.838087558746338,-3.06999135017395,-0.1136175915598869,-0.4202629029750824,0.0305423624813556,#
-8.549554824829102,3.967299938201904,-3.919443368911743,-0.1844758540391922,-0.4605787992477417,-0.0195471122860908,#
-8.784051895141602,4.115654945373535,-3.960121393203736,-0.2015795856714248,-0.4544703662395477,-0.0219905003905296,#
-8.97787094116211,4.2376885414123535,-3.177668571472168,-0.2199050188064575,-0.439810037612915,-0.0219905003905296,#
-8.843873023986816,4.328616142272949,-2.7421746253967285,-0.2980934381484985,-0.3958290219306946,0.0097735561430454,#
-8.843873023986816,4.328616142272949,-2.7421746253967285,-0.3078669905662536,-0.3799469769001007,0.0109952501952648,#
-8.405985832214355,4.204189300537109,-2.6943180561065674,-0.2761029601097107,-0.388498842716217,-0.0024433890357613,#
-8.609375953674316,4.161118507385254,-2.830709218978882,-0.2040229737758636,-0.3298574984073639,-0.0134386392310261,#
-8.520841598510742,3.964907169342041,-2.830709218978882,-0.1246128380298614,-0.2333436459302902,-0.0012216945178806,#
-8.315058708190918,3.9912283420562735,-2.3880369663238525,-0.0684148892760276,-0.2052446752786636,-0.007330167107284,#
-8.315058708190918,3.9912283420562735,-2.3880369663238525,0.0452026948332786,-0.1453816443681717,-0.0659715011715889,#
-8.303093910217285,4.065405368804932,-2.2085752487182617,0.0708582773804664,-0.0916270837187767,-0.0659715011715889,#
-8.38684368133545,3.8261232376098633,-2.335394859313965,0.0342074446380138,0.0293206684291362,-0.0574196390807628,#
-8.260024070739746,3.4480574131011963,-2.8115665912628174,-0.0659715011715889,0.0757450610399246,-0.0671931952238082,#
-8.193024635314941,3.314059257507324,-2.914458036422729,-0.0818535313010215,0.0586413368582725,-0.0879620015621185,#
-8.066205024719238,3.680161237716675,-2.9168508052825928,-0.031764056533575,0.0671931952238082,-0.0574196390807628,#
-8.066205024719238,3.680161237716675,-2.9168508052825928,0.0305423624813556,0.130721315741539,-0.0048867780715227,#
-8.011170387268066,3.5294132232666016,-2.715853452682495,0.0488677769899368,0.1429382413625717,0.0097735561430454,#
-7.838886737823486,3.4169507026672363,-3.239881753921509,0.0219905003905296,0.1258345395326614,0.0256555844098329,#
-8.147561073303223,3.524627923965454,-3.797409296035767,-0.0659715011715889,0.2137965410947799,0.0513111688196659,#
-8.171488761901855,3.5916268825531006,-3.7232320308685294,-0.1099525094032287,0.2602209150791168,0.0757450610399246,#
-7.781459331512451,3.862015962600708,-3.524627923965454,-0.1148392781615257,0.1637070626020431,0.1099525094032287,#
-7.781459331512451,3.862015962600708,-3.524627923965454,-0.0806318372488021,0.0354291386902332,0.1270562261343002,#
-7.963313579559326,4.082155227661133,-3.708875179290772,-0.0855186134576797,0.0452026948332786,0.1441599577665329,#
-8.049454689025879,4.086941242218018,-3.893122434616089,-0.0708582773804664,0.0940704718232154,0.1832541674375534,#
-7.951349258422852,4.364508152008057,-3.768695831298828,-0.040315918624401,0.0232121963053941,0.1673721522092819,#
-8.173882484436035,4.613362312316895,-3.785445213317871,-0.040315918624401,-0.0134386392310261,0.1600419729948043,#
-8.173882484436035,4.613362312316895,-3.785445213317871,-0.0659715011715889,-0.0024433890357613,0.1722589135169983,#
-8.432307243347168,4.67078971862793,-3.7639100551605225,-0.0806318372488021,0.0183254163712263,0.1734806150197982,#
-8.343771934509277,4.596612453460693,-3.524627923965454,-0.0684148892760276,-0.0488677769899368,0.1331647038459777,#
-8.48016357421875,4.417150497436523,-2.988635540008545,-0.031764056533575,-0.0867403075098991,0.1062874197959899,#
-8.58066177368164,4.354937553405762,-2.6392831802368164,-0.0134386392310261,-0.0598630309104919,0.0989572554826736,#
-8.372486114501953,4.371686935424805,-2.7900311946868896,0.0122169442474842,-0.0329857505857944,0.0708582773804664,#
-8.372486114501953,4.371686935424805,-2.7900311946868896,0.0097735561430454,-0.0280989725142717,0.0415376126766204,#
-8.37727165222168,4.424329280853272,-3.192025184631348,-0.0122169442474842,-0.007330167107284,0.0329857505857944,#
-8.484949111938477,4.395615100860596,-3.5030922889709477,-0.0574196390807628,0.0659715011715889,0.0415376126766204,#
-8.47298526763916,4.283152580261231,-3.802195072174072,-0.1026223376393318,0.1209477484226226,0.0366508327424526,#
-8.169095993041992,4.333401679992676,-3.620340585708618,-0.1062874197959899,0.1380514800548553,0.0342074446380138,#
-7.987241268157959,4.194617748260498,-3.565305471420288,-0.0610847249627113,0.1575985848903656,0.031764056533575,#
-7.987241268157959,4.194617748260498,-3.565305471420288,0.0109952501952648,0.1588202863931656,0.0024433890357613,#
-7.88913631439209,4.108476161956787,-3.948157548904419,0.0244338884949684,0.1649287492036819,-0.0146603342145681,#
-8.018348693847656,4.29750919342041,-4.393222332000732,0.0342074446380138,0.1808107793331146,-0.0537545569241046,#
-7.891529560089111,4.127618789672852,-4.541577339172363,-0.0232121963053941,0.1820324808359146,-0.0769667476415634,#
-7.590033531188965,4.00319242477417,-4.252045631408691,-0.0464243926107883,0.1539334952831268,-0.1038440242409706,#
-7.590033531188965,4.00319242477417,-4.252045631408691,-0.0757450610399246,0.1478250324726104,-0.1270562261343002,#
-7.537391662597656,4.039084434509277,-3.988835573196411,-0.0635281130671501,0.1673721522092819,-0.1209477484226226,#
-7.417750358581543,3.8835511207580566,-4.096512317657471,-0.007330167107284,0.1490467190742492,-0.1368297785520553,#
-7.214360237121582,3.682554006576538,-4.563112735748291,-0.0268772784620523,0.0989572554826736,-0.1734806150197982,#
-7.111469268798828,3.510270833969116,-4.843072891235352,-0.0598630309104919,0.0610847249627113,-0.1930277347564697,#
-6.795616626739502,3.744767427444458,-4.41475772857666,-0.069636583328247,-0.0109952501952648,-0.2247917801141739,#
-6.795616626739502,3.744767427444458,-4.41475772857666,-0.0916270837187767,-0.0867403075098991,-0.2235700935125351,#
-6.479763507843018,3.960121393203736,-4.7712883949279785,-0.1343863904476165,-0.1062874197959899,-0.2076880484819412,#
-6.135197162628174,3.69930362701416,-5.458028793334961,-0.2333436459302902,-0.1820324808359146,-0.2431172132492065,#
-5.860023021697998,3.5054850578308105,-6.113661766052246,-0.4520269632339477,-0.2528907656669616,-0.2748812437057495,#
-5.410171985626221,3.074777126312256,-6.721438884735107,-0.5803048610687256,-0.2980934381484985,-0.3017585575580597,#
-4.424329280853272,2.68953275680542,-7.444070816040039,-0.6975875496864319,-0.5485408306121826,-0.3860554695129394,#
-4.424329280853272,2.68953275680542,-7.444070816040039,-0.8674030900001526,-0.9468132257461548,-0.5277720093727112,#
-2.9479575157165527,1.7324036359786987,-7.649853706359863,-0.9504783153533936,-1.233911395072937,-0.6560499668121338,#
-1.459621787071228,1.244267821311951,-7.130610942840576,-1.1264023780822754,-1.9058433771133425,-0.9468132257461548,#
-0.5934200286865234,1.1222338676452637,-6.759723663330078,-1.414722204208374,-2.447054147720337,-1.0824213027954102,#
-0.0095712905749678,0.5431707501411438,-6.594619274139404,-1.571099042892456,-2.681619167327881,-1.1105202436447144,#
-0.0095712905749678,0.5431707501411438,-6.594619274139404,-1.783673882484436,-3.205726385116577,-1.1813786029815674,#
1.0839486122131348,-0.1722832471132278,-6.240481376647949,-1.8618624210357664,-3.550244092941284,-1.2363548278808594,down
2.569891452789306,-1.0049854516983032,-5.848058700561523,-1.8911830186843872,-4.27104377746582,-1.3548591136932373,down
4.043870449066162,-2.0865414142608643,-4.180261135101318,-1.900956630706787,-4.950306415557861,-1.4587032794952393,down
5.501099109649658,-3.201596736907959,-2.830709218978882,-1.9339423179626465,-5.418215274810791,-1.5430002212524414,down
6.912864685058594,-3.943371772766113,-1.4141581058502195,-2.0561118125915527,-6.463985443115234,-1.7262543439865112,down
6.912864685058594,-3.943371772766113,-1.4141581058502195,-2.1538474559783936,-7.715000629425049,-1.9473810195922847,down
8.556733131408691,-3.395415067672729,-1.0863415002822876,-2.3615353107452397,-8.278202056884766,-2.025569438934326,down
11.1433744430542,-2.5986053943634038,-3.469593048095703,-2.7952370643615723,-9.209132194519045,-2.0634419918060303,down
14.634504318237305,-2.4430718421936035,-5.027320384979248,-3.491602897644043,-9.927489280700684,-2.1281917095184326,down
20.642881393432617,-3.988835573196411,-4.682754039764404,-3.638206243515015,-10.248794555664062,-2.212488889694214,down
20.642881393432617,-3.988835573196411,-4.682754039764404,-3.860554456710816,-11.017240524291992,-2.510582208633423,down
26.455047607421875,-5.814558982849121,-2.1607186794281006,-4.065799236297607,-11.755144119262695,-3.140976428985596,down
30.1567440032959,-6.31944465637207,3.2279179096221924,-3.776257514953613,-12.347665786743164,-3.436626672744751,down
33.879974365234375,-2.768495798110962,3.739981651306152,-2.170951128005981,-13.52538013458252,-3.717616319656372,down
41.24987030029297,-1.210768222808838,2.313859462738037,-1.6395140886306765,-13.81369972229004,-3.61377215385437,down
46.255653381347656,1.442872166633606,9.755537986755373,-1.6639479398727417,-13.968854904174805,-3.489159345626831,down
46.255653381347656,1.442872166633606,9.755537986755373,-2.4323935508728027,-13.70985507965088,-2.945505380630493,down
43.20719909667969,1.6701902151107788,7.554140567779541,-2.8245575428009038,-12.798471450805664,-2.828222751617432,down
34.829925537109375,-7.034898281097412,0.3589234054088592,-4.59479284286499,-9.2555570602417,-2.2870118618011475,down
32.8319206237793,-13.957335472106934,3.4983065128326416,-5.718751907348633,-5.573369979858398,-1.9583762884140012,down
30.317062377929688,-14.438291549682615,8.082954406738281,-5.371790885925293,-4.558142185211182,-1.8239898681640625,down
25.36870384216309,-12.270394325256348,8.819944381713867,-4.062134265899658,-2.7231569290161133,-1.2925527095794678,down
25.36870384216309,-12.270394325256348,8.819944381713867,-3.286358118057251,-1.5430002212524414,-0.439810037612915,down
20.781665802001957,-10.729416847229004,8.484949111938477,-3.158080101013184,-1.248571753501892,-0.0293206684291362,down
16.716259002685547,-7.128218650817871,7.408178806304932,-3.017585277557373,-0.522885262966156,0.8551861643791199,down
13.581660270690918,-5.778666496276856,5.776273727416992,-3.0945520401000977,0.0207688063383102,1.6395140886306765,down
11.119447708129885,-7.255037784576416,3.7328033447265625,-3.2729194164276123,0.2883199155330658,1.8410935401916504,down
11.119447708129885,-7.255037784576416,3.7328033447265625,-3.597890138626098,0.5509842038154602,2.0084657669067383,#
9.621540069580078,-8.049454689025879,2.483749866485596,-3.535583972930908,0.6255075931549072,1.9021782875061035,#
8.097311973571777,-7.774280071258545,1.2514461278915403,-3.371876716613769,0.7354600429534912,1.8349851369857788,#
7.539783954620361,-7.5326056480407715,0.8925228118896484,-2.71460509300232,0.8295305371284485,1.612636685371399,#
7.472784996032715,-6.922436237335205,0.3924228847026825,-2.277238368988037,0.7879929542541504,1.446486234664917,#
7.865207672119141,-6.027520179748535,-0.1890329867601394,-1.3438639640808103,0.5766398310661316,1.0433270931243896,#
7.865207672119141,-6.027520179748535,-0.1890329867601394,-0.5864133238792419,0.3836120665073395,0.7598939538002014,#
8.484949111938477,-5.575276851654053,-0.3900300860404968,-0.3042019307613373,0.342074453830719,0.6584933400154114,#
9.042476654052734,-5.161318302154541,-0.662811815738678,0.0537545569241046,0.3261924386024475,0.4141544103622436,#
9.442078590393066,-4.543970108032227,-0.818345308303833,0.2883199155330658,0.2895416021347046,0.2418954968452453,#
9.336793899536133,-3.962514162063599,-0.9930213689804076,0.3518480062484741,0.3127537965774536,0.2076880484819412,#
8.877371788024902,-3.8907296657562256,-1.284945726394653,0.4373666048049927,0.4385882914066314,0.152711808681488,#
8.877371788024902,-3.8907296657562256,-1.284945726394653,0.4960079491138458,0.5803048610687256,0.1429382413625717,#
8.989834785461426,-4.658825397491455,-0.9595218896865844,0.5680879354476929,0.6035171151161194,0.1429382413625717,#
9.485149383544922,-4.831109046936035,-0.8662018179893494,0.8087617754936218,0.4434750974178314,0.1319430023431778,#
9.643074989318848,-4.182653903961182,-0.7920243144035339,0.8502993583679199,0.3787252902984619,0.3042019307613373,#
9.339186668395996,-4.115654945373535,-0.6317051649093628,0.8832851052284241,0.42270627617836,0.3860554695129394,#
9.339186668395996,-4.115654945373535,-0.6317051649093628,0.9358179569244384,0.5351021885871887,0.5070031881332397,#
8.906085968017578,-4.218546390533447,-0.4929214715957641,0.9468132257461548,0.5656445622444153,0.620620846748352,#
8.542377471923828,-4.469792366027832,-0.6652047038078308,0.9578084945678712,0.5448757410049438,0.6426112651824951,#
8.482556343078613,-4.838287353515625,-0.6293123364448547,0.9492565989494324,0.4898994863033294,0.6536065340042114,#
8.561518669128418,-5.572883605957031,-0.0023928226437419,0.9688037633895874,0.4618005454540252,0.6560499668121338,#
9.099905014038086,-6.597012042999268,0.2488535493612289,1.0152281522750854,0.4251496791839599,0.6560499668121338,#
9.099905014038086,-6.597012042999268,0.2488535493612289,1.1044118404388428,0.3897205293178558,0.7000309228897095,#
9.446864128112791,-6.649653911590576,0.3996013700962066,1.068982720375061,0.3677300214767456,0.7440119385719299,#
9.446864128112791,-7.042076587677002,0.5048855543136597,1.044548749923706,0.3982723951339721,0.836860716342926,#
9.55214786529541,-8.666803359985352,0.5000999569892883,1.0763128995895386,0.4984513521194458,0.9932376146316528,#
9.848857879638672,-10.02592658996582,1.131805181503296,1.1508362293243408,0.5656445622444153,1.0885297060012815,#
10.609774589538574,-11.92343521118164,1.514656662940979,1.086086392402649,0.5913001298904419,1.3145432472229004,#
10.609774589538574,-11.92343521118164,1.514656662940979,1.044548749923706,0.6132906079292297,1.7360278367996216,#
11.794222831726074,-13.25145149230957,1.430907964706421,1.0066763162612915,0.5509842038154602,2.017017602920532,#
11.935399055480955,-12.66281795501709,0.5431707501411438,0.8014315962791443,0.3469612300395965,2.666959047317505,#
11.392227172851562,-12.626924514770508,-0.3637090623378753,0.7965447902679443,0.0940704718232154,3.402419090270996,#
11.102697372436523,-11.772686958312988,-0.7202396392822266,0.7525637745857239,0.0024433890357613,3.7457151412963863,#
11.102697372436523,-11.772686958312988,-0.7202396392822266,0.2015795856714248,-0.0769667476415634,4.404208660125732,#
10.325029373168944,-9.62393283843994,-0.8877372145652771,-0.256555825471878,-0.0965138673782348,4.708410739898682,#
8.807979583740234,-7.496713638305664,-1.34476637840271,-1.2192511558532717,-0.2015795856714248,5.138447284698486,#
7.278966426849365,-5.283352375030518,-1.0217353105545044,-2.403073072433472,-0.4288147687911987,5.454865455627441,#
5.474778175354004,-5.496313571929932,-0.794417142868042,-3.068896532058716,-0.6682668924331665,5.520837306976318,#
4.701896190643311,-4.95792818069458,-1.124626636505127,-3.6675267219543457,-1.313321590423584,5.377899169921875,#
4.701896190643311,-4.95792818069458,-1.124626636505127,-4.24783182144165,-1.682273268699646,5.204418659210205,#
4.158725738525391,-5.776273727416992,-1.0671988725662231,-4.147652626037598,-1.9486026763916016,4.909989833831787,#
4.386044025421143,-6.149554252624512,-1.098305583000183,-3.3547730445861816,-2.3847475051879883,3.981502294540405,#
4.938785552978516,-4.845465660095215,-1.4093725681304932,-2.7353739738464355,-2.568001747131348,3.28024959564209,#
5.194818019866943,-3.259024381637573,-1.306481122970581,-2.279681921005249,-2.530129194259644,2.9821560382843018,#
5.206782341003418,-2.1990041732788086,-0.9571290016174316,-1.7653485536575315,-2.2576913833618164,2.3713088035583496,#
5.206782341003418,-2.1990041732788086,-0.9571290016174316,-1.5515520572662354,-1.839871883392334,1.8887397050857544,#
5.125426292419434,-3.201596736907959,-0.2344966232776641,-1.3084348440170288,-1.6309621334075928,1.58942449092865,#
5.249853134155273,-2.569891452789306,1.057627558708191,-1.2424633502960205,-1.241241693496704,1.0482138395309448,#
5.66620397567749,-1.8975083827972408,2.108076810836792,-1.1545013189315796,-0.9602518677711488,0.5363238453865051,#
6.632904052734375,-1.7922240495681765,2.1846470832824707,-1.1080769300460815,-0.8710681796073914,0.2736595571041107,#
6.632904052734375,-1.7922240495681765,2.1846470832824707,-1.1312891244888306,-0.574196457862854,-0.1502684205770492,#
7.697710037231445,-2.438286304473877,1.950150489807129,-1.6040849685668943,0.5998519659042358,-0.6536065340042114,#
8.154739379882812,-5.577669143676758,1.8951154947280884,-1.4122787714004517,1.510014295578003,-1.0408836603164673,#
9.035298347473145,-7.396214485168457,3.433700561523437,-1.3511940240859983,1.81177282333374,-1.2143642902374268,counterclockwise
11.038090705871582,-8.169095993041992,3.036492109298706,-0.873511552810669,2.310224294662476,-1.5552170276641846,counterclockwise
13.036097526550291,-8.831908226013184,1.8544375896453855,-0.7244647741317749,3.0530147552490234,-1.7958909273147583,counterclockwise
13.036097526550291,-8.831908226013184,1.8544375896453855,-0.7000309228897095,3.584451675415039,-1.8459802865982056,counterclockwise
14.316258430480955,-10.224532127380373,2.3330020904541016,-0.6548282504081726,4.599679470062256,-1.998692274093628,counterclockwise
15.924235343933104,-11.121840476989746,3.1824538707733154,-0.6352811455726624,5.435318470001221,-2.148960590362549,counterclockwise
17.651853561401367,-13.440485000610352,1.1413763761520386,-0.5656445622444153,5.900784492492676,-2.255248069763184,counterclockwise
20.788843154907227,-18.135202407836918,-0.763310432434082,-0.3078669905662536,6.8170552253723145,-2.483704805374145,counterclockwise
25.074386596679688,-20.743379592895508,-1.5122638940811155,-0.2321219593286514,7.925131797790527,-2.400629758834839,counterclockwise
25.074386596679688,-20.743379592895508,-1.5122638940811155,-0.2467822879552841,8.733893394470215,-2.20760178565979,counterclockwise
27.94816780090332,-23.62433815002441,-2.115255117416382,-0.7818844318389893,10.498021125793455,-1.4623682498931885,counterclockwise
29.18764877319336,-27.629920959472656,-2.232503652572632,-2.438502311706543,11.298230171203612,0.0830752253532409,counterclockwise
28.615766525268555,-28.034311294555664,-1.797009825706482,-3.3511078357696533,11.226150512695312,1.1251806020736694,counterclockwise
28.21855735778809,-24.236900329589844,-6.527620315551758,-5.614907741546631,10.25490379333496,3.8801016807556152,counterclockwise
28.21855735778809,-24.236900329589844,-6.527620315551758,-6.450546741485596,9.563425064086914,5.264281749725342,counterclockwise
26.617759704589844,-21.824934005737305,-12.997812271118164,-7.438898086547852,8.174357414245605,7.427902698516846,counterclockwise
24.894926071166992,-21.037694931030277,-15.99601936340332,-7.350935935974121,6.841489315032959,8.498106956481934,counterclockwise
21.93500518798828,-16.369298934936523,-18.12802505493164,-6.885469913482666,6.185439109802246,8.801087379455566,counterclockwise
18.56351852416992,-15.105889320373535,-17.723636627197266,-5.19953203201294,4.900216579437256,9.031987190246582,counterclockwise
20.719451904296875,-17.314464569091797,-14.490934371948242,-3.150750160217285,3.176405668258667,8.849955558776855,counterclockwise
20.719451904296875,-17.314464569091797,-14.490934371948242,-2.169729471206665,1.7824522256851196,8.524984359741211,counterclockwise
21.729219436645508,-13.380663871765137,-15.050853729248049,-1.119072198867798,-0.6255075931549072,8.120603561401367,counterclockwise
21.288942337036133,-6.829115867614746,-16.474584579467773,-1.580872654914856,-2.0084657669067383,7.790745735168457,counterclockwise
20.212173461914062,-5.723631858825684,-13.07199001312256,-1.9473810195922847,-2.4714879989624023,7.822509765625,counterclockwise
19.479969024658203,-6.577868938446045,-9.449256896972656,-1.859418988227844,-3.4060842990875244,7.740655899047852,counterclockwise
19.479969024658203,-6.577868938446045,-9.449256896972656,-0.9358179569244384,-4.073129653930664,7.477992057800293,counterclockwise
18.54198265075684,-4.374079704284668,-7.477570533752441,-0.4129327237606048,-4.31013822555542,7.336275577545166,counterclockwise
17.261823654174805,-2.050648927688598,-6.632904052734375,0.1661504507064819,-4.365114212036133,7.115148544311523,counterclockwise
15.366706848144531,-0.6508477926254272,-6.374479293823242,0.2504473626613617,-4.018153190612793,6.82805061340332,counterclockwise
12.524033546447754,0.0622133873403072,-4.543970108032227,0.0256555844098329,-3.850780963897705,6.698550701141357,counterclockwise
10.74855899810791,1.3423734903335571,-2.5459630489349365,-0.7928797006607056,-3.445178270339966,6.388240337371826,counterclockwise
10.74855899810791,1.3423734903335571,-2.5459630489349365,-1.1288456916809082,-3.3401126861572266,6.119467735290527,counterclockwise
9.329615592956545,2.900100946426392,-1.2705888748168943,-1.572320818901062,-3.341334342956543,5.487851619720459,counterclockwise
8.248059272766113,4.19701099395752,-0.7130610942840576,-1.5087926387786863,-3.421966314315796,5.044376373291016,counterclockwise
7.130610942840576,4.244867324829102,-0.7202396392822266,-1.414722204208374,-3.53191876411438,4.862344264984131,counterclockwise
6.451050281524658,4.063012599945068,-0.7800601720809937,-1.452594757080078,-3.7249464988708496,4.468958377838135,counterclockwise
5.630311965942383,4.510470867156982,-1.361515998840332,-1.9253904819488523,-3.965620279312134,4.092676639556885,counterclockwise
5.630311965942383,4.510470867156982,-1.361515998840332,-2.271130084991455,-4.106115341186523,3.9424080848693848,counterclockwise
4.792823314666748,4.634897232055664,-1.6031911373138428,-2.918627977371216,-4.295477867126465,3.621102333068848,counterclockwise
4.634897232055664,4.453042984008789,-1.215553879737854,-3.743271827697754,-4.666872978210449,2.9980382919311523,counterclockwise
4.926821708679199,3.486342430114746,-1.8831514120101929,-4.059690952301025,-4.83057975769043,2.6364166736602783,counterclockwise
5.548955917358398,2.8929224014282227,-2.1272192001342773,-5.128673553466797,-5.145777225494385,2.0011355876922607,counterclockwise
5.548955917358398,2.8929224014282227,-2.1272192001342773,-7.062615871429443,-4.803702354431152,1.437934398651123,counterclockwise
6.345765590667725,4.225724697113037,-0.8542376756668091,-7.773642063140869,-4.6070098876953125,1.0054545402526855,counterclockwise
7.616354942321777,2.809173583984375,2.687139749526977,-7.547628402709961,-4.756056785583496,-0.2602209150791168,counterclockwise
10.07139015197754,-1.3902300596237185,1.0336993932724,-6.874475002288818,-4.966187953948975,-0.8478559851646423,counterclockwise
13.907085418701172,-7.097111701965332,-2.6081764698028564,-5.722416877746582,-5.342470169067383,-1.51734459400177,counterclockwise
17.54178237915039,-5.417350769042969,0.7537391781806946,-7.330166816711426,-3.335226058959961,-2.140408754348755,counterclockwise
17.54178237915039,-5.417350769042969,0.7537391781806946,-7.390029907226562,-2.050003290176392,-2.828222751617432,counterclockwise
18.52044677734375,-6.558726787567139,5.508277893066406,-5.569705009460449,-1.0714260339736938,-4.235614776611328,counterclockwise
20.149961471557617,-12.37567901611328,8.685946464538574,-4.631443500518799,-1.4660333395004272,-5.287493705749512,counterclockwise
19.38665008544922,-10.305886268615724,8.772088050842285,-4.874560832977295,-1.5234529972076416,-5.79816198348999,counterclockwise
20.24327850341797,-7.054040908813477,11.014162063598633,-4.956414222717285,-0.9920158982276917,-6.438329696655273,counterclockwise
22.16950035095215,-12.3278226852417,14.266008377075195,-4.74506139755249,-0.8747332096099854,-7.100488185882568,counterclockwise
22.16950035095215,-12.3278226852417,14.266008377075195,-3.893540143966675,-0.8698464632034302,-7.34849214553833,counterclockwise
25.83769798278809,-24.701107025146484,15.225530624389648,-1.799556016921997,-0.1575985848903656,-8.008207321166992,counterclockwise
21.650259017944336,-22.85863494873047,15.682559967041016,1.1398409605026243,0.5607577562332153,-8.29041862487793,counterclockwise
18.175880432128903,-13.81855010986328,13.15095329284668,2.2833471298217773,0.4740174412727356,-8.123046875,counterclockwise
18.97269058227539,-11.21994400024414,14.021940231323242,1.549108624458313,-0.1026223376393318,-7.662467956542969,counterclockwise
18.97269058227539,-11.21994400024414,14.021940231323242,-0.3872771561145782,-0.1844758540391922,-7.0223002433776855,counterclockwise
18.458234786987305,-6.654439926147461,15.802199363708496,-4.181860446929932,-0.1441599577665329,-5.360795497894287,counterclockwise
17.69013786315918,-8.228917121887207,14.026725769042969,-6.225755214691162,0.7012526392936707,-4.173308372497559,counterclockwise
16.560726165771484,-14.682358741760254,11.358729362487791,-6.935559749603272,1.349972367286682,-3.790918111801148,counterclockwise
13.081561088562012,-18.76930046081543,7.697710037231445,-7.073610782623291,2.6107609272003174,-3.352329730987549,counterclockwise
7.420143127441406,-19.47518348693848,4.687539577484131,-4.729179382324219,3.142198085784912,-3.0322458744049072,counterclockwise
7.420143127441406,-19.47518348693848,4.687539577484131,-3.439069986343384,3.148306608200073,-2.797680377960205,counterclockwise
5.065605640411377,-14.598610877990724,4.692325115203857,-1.9143953323364256,3.013920307159424,-2.1330785751342773,counterclockwise
5.654239654541016,-12.382857322692873,4.967499732971191,-1.2876659631729126,2.332214832305908,-1.6211885213851929,#
5.639883518218994,-13.359129905700684,3.931407451629639,-0.8063183426856995,2.0548901557922363,-1.3646327257156372,#
4.874179840087891,-12.222538948059082,2.919243574142456,0.2247917801141739,2.05366849899292,-0.9785772562026978,#
3.780659914016724,-9.626325607299805,2.3330020904541016,0.758672297000885,2.126970052719116,-0.7721109390258789,#
3.780659914016724,-9.626325607299805,2.3330020904541016,0.9126058220863342,2.019460916519165,-0.6560499668121338,#
3.713660717010498,-8.48016357421875,3.90987229347229,0.989572525024414,1.751909852027893,-0.4422534108161926,#
3.969692707061768,-7.922636032104492,5.659025192260742,0.9883508682250975,1.4306042194366455,-0.2748812437057495,#
3.8261232376098633,-6.685546875,5.407779216766357,1.141062617301941,1.211920976638794,-0.1966928243637085,#
3.8261232376098633,-6.685546875,5.407779216766357,1.172826647758484,1.1202938556671145,-0.1698155403137207,#
3.704089403152466,-5.816952228546143,4.6301116943359375,1.044548749923706,1.1178505420684814,-0.1795890927314758,#
3.806980848312378,-5.680561065673828,5.295316696166992,0.5803048610687256,1.0237799882888794,-0.0708582773804664,#
4.417150497436523,-5.443671703338623,6.790830135345459,0.4569137394428253,0.7818844318389893,0.0806318372488021,#
4.436293125152588,-5.096712112426758,7.70249605178833,0.4141544103622436,0.7427902817726135,0.1429382413625717,#
4.438685894012451,-4.520041942596436,7.992027282714844,0.5045598149299622,0.7036960124969482,0.3029802441596985,#
4.438685894012451,-4.520041942596436,7.992027282714844,0.6572716236114502,0.5693095922470093,0.3494046330451965,#
4.453042984008789,-3.565305471420288,7.764709949493408,0.6914790868759155,0.5509842038154602,0.3689517080783844,#
3.9553356170654297,-2.8426735401153564,7.307680606842041,0.7574505805969238,0.5387672781944275,0.3823903799057007,#
4.070191383361816,-2.840280532836914,7.8795647621154785,0.6878139972686768,0.5082249045372009,0.411711037158966,#
4.285545349121094,-2.3736801147460938,8.638089179992676,0.7183563709259033,0.4532486498355865,0.4312581717967987,#
4.244867324829102,-2.09850549697876,8.544770240783691,0.785549521446228,0.411711037158966,0.411711037158966,#
4.244867324829102,-2.09850549697876,8.544770240783691,0.9089407324790956,0.3555130958557129,0.3628432750701904,#
3.931407451629639,-2.2779672145843506,8.444271087646484,0.9382613897323608,0.3286358118057251,0.3151971697807312,#
4.065405368804932,-1.758724570274353,7.956134796142578,0.989572525024414,0.2089097648859024,0.2089097648859024,#
3.658626079559326,-1.392622709274292,8.042276382446289,0.8832851052284241,0.258999228477478,0.1832541674375534,#
3.976871252059937,-1.2011969089508057,8.597411155700684,0.8026533126831055,0.2089097648859024,0.1832541674375534,#
3.976871252059937,-1.2011969089508057,8.597411155700684,0.6707102656364441,0.0671931952238082,0.2052446752786636,#
4.194617748260498,-1.4835500717163086,8.60219669342041,0.6548282504081726,0.0720799788832664,0.1881409436464309,#
3.907479047775269,-1.887937068939209,8.214560508728027,0.6303943395614624,0.1014006435871124,0.1612636744976043,#
3.811766624450684,-1.9070796966552732,7.927421569824219,0.6193991303443909,0.1368297785520553,0.130721315741539,#
3.905086755752564,-1.6582260131835938,8.415557861328125,0.6230642199516296,0.1673721522092819,0.1075091138482093,#
4.053441524505615,-1.2634103298187256,8.841480255126953,0.6365028619766235,0.1392731666564941,0.1075091138482093,#
4.053441524505615,-1.2634103298187256,8.841480255126953,0.5473191142082214,0.1075091138482093,0.130721315741539,#
4.051048755645752,-1.4763716459274292,9.011369705200195,0.4984513521194458,0.0561979450285434,0.1368297785520553,#
4.285545349121094,-1.5960125923156738,8.623733520507812,0.3848337531089782,-0.0513111688196659,0.1185043603181839,#
4.120440483093262,-1.5481561422348022,7.980063438415527,0.2675510942935943,-0.0195471122860908,0.0879620015621185,#
3.931407451629639,-1.6701902151107788,8.126025199890137,0.4043808877468109,-0.0219905003905296,0.0586413368582725,#
3.931407451629639,-1.6701902151107788,8.126025199890137,0.5619794726371765,0.0830752253532409,0.0525328628718853,#
3.924229145050049,-1.1270195245742798,8.365307807922363,0.5913001298904419,0.1026223376393318,0.0488677769899368,#
3.617947816848755,-1.105484127998352,8.228917121887207,0.5717529654502869,0.0048867780715227,0.0158820282667875,#
3.488735675811768,-1.6701902151107788,7.903492927551269,0.5913001298904419,-0.0818535313010215,-0.0244338884949684,#
3.290131092071533,-1.7252250909805298,7.178467750549316,0.5937435030937195,-0.1698155403137207,-0.0781884491443634,#
2.816352128982544,-2.4047868251800537,6.759723663330078,0.7745543122291565,-0.3860554695129394,-0.1453816443681717,#
2.816352128982544,-2.4047868251800537,6.759723663330078,0.9223793148994446,-0.4569137394428253,-0.1649287492036819,#
2.648854732513428,-2.4646072387695312,6.290730953216553,1.0176715850830078,-0.5534276366233826,-0.1918060332536697,#
2.048256158828736,-3.187239646911621,6.049055576324463,1.0567656755447388,-0.8881718516349792,-0.1197260618209838,#
2.244467735290528,-4.981856822967529,5.659025192260742,1.09219491481781,-1.0469921827316284,-0.0781884491443634,#
2.177468776702881,-6.965506553649902,5.960521221160889,1.2852225303649902,-1.321873426437378,0.0647498071193695,#
3.3092737197875977,-8.83669376373291,7.369894027709961,1.6040849685668943,-1.7567967176437378,0.3640649616718292,#
3.3092737197875977,-8.83669376373291,7.369894027709961,1.7348061800003052,-1.94249427318573,0.549762487411499,clockwise
5.43170690536499,-9.375079154968262,7.793423175811768,2.057333469390869,-2.150182247161865,1.0714260339736938,clockwise
5.778666496276856,-11.655439376831056,7.2335028648376465,2.5130257606506348,-2.3529837131500244,1.7005987167358398,clockwise
6.214160442352295,-13.773086547851562,7.788637638092041,2.839218139648437,-2.4775965213775635,2.0414514541625977,clockwise
9.26740264892578,-10.425528526306152,8.872586250305176,3.393867492675781,-2.5325727462768555,2.883198976516724,clockwise
9.26740264892578,-10.425528526306152,8.872586250305176,3.536805391311645,-2.47881817817688,3.735941648483277,clockwise
10.671989440917969,-9.657432556152344,9.796216011047363,3.408527612686157,-2.4226200580596924,4.093898296356201,clockwise
11.504691123962402,-11.600403785705566,9.33440113067627,3.513593435287476,-2.284568548202514,4.705967426300049,clockwise
14.213366508483888,-11.868400573730469,10.645668029785156,3.7567105293273926,-2.203936815261841,4.978404998779297,clockwise
18.66401672363281,-8.640481948852539,11.155338287353516,4.301586151123047,-2.238144397735596,5.457309246063232,clockwise
21.6071891784668,-7.257431030273437,9.408578872680664,4.153761386871338,-1.5222313404083252,5.765175819396973,clockwise
21.6071891784668,-7.257431030273437,9.408578872680664,3.7823660373687744,-1.192373752593994,5.9899678230285645,clockwise
23.45444679260254,-6.838686943054199,7.9585280418396,2.947948932647705,-0.3994940817356109,6.561720848083496,clockwise
26.08655166625977,-5.158926010131836,7.238288879394531,3.1812922954559326,0.178367406129837,6.206208229064941,clockwise
26.280370712280277,-4.438685894012451,4.740181922912598,3.4696123600006104,0.5375455617904663,6.058382987976074,clockwise
25.27299118041992,-1.94297194480896,3.969692707061768,4.173308372497559,1.1581664085388184,5.91910982131958,clockwise
24.92603302001953,0.0095712905749678,4.6061835289001465,4.933202266693115,1.1569446325302124,5.705313205718994,clockwise
24.92603302001953,0.0095712905749678,4.6061835289001465,5.244734764099121,1.0396620035171509,5.537940979003906,clockwise
26.5675106048584,1.497907042503357,7.683353424072266,5.864133358001709,1.1276240348815918,4.990622043609619,clockwise
27.986452102661133,3.4193434715271,8.159524917602539,5.836034774780273,1.4953540563583374,4.30402946472168,clockwise
28.034311294555664,2.6967110633850098,5.412564754486084,5.1738762855529785,2.4421675205230717,3.8947620391845694,clockwise
25.143781661987305,0.0933200791478157,3.716053485870361,3.7420501708984375,4.449411392211914,2.839218139648437,clockwise
25.143781661987305,0.0933200791478157,3.716053485870361,3.671191930770874,5.737077236175537,1.7629051208496094,clockwise
23.67219352722168,-2.524427890777588,4.328616142272949,4.234393119812012,6.214759826660156,0.9028322100639344,clockwise
21.78186416625977,-2.0554347038269043,5.6925249099731445,5.250843048095703,6.741310119628906,-0.9553651213645936,clockwise
20.178672790527344,0.6245267391204834,5.642275810241699,5.596582412719727,6.85492753982544,-1.7103723287582395,clockwise
18.494125366210938,0.9762716889381408,4.357330322265625,6.08648157119751,6.605701923370361,-2.9821560382843018,clockwise
16.862220764160156,-0.2871387302875519,2.888136863708496,5.902006149291992,6.405344486236572,-4.118331909179688,clockwise
16.862220764160156,-0.2871387302875519,2.888136863708496,5.612464427947998,6.54339599609375,-4.611896514892578,clockwise
14.955141067504885,-2.3330020904541016,0.662811815738678,5.184871196746826,7.112705230712891,-5.099352836608887,clockwise
12.897314071655272,-4.898108005523682,1.7922240495681765,4.726735591888428,7.425458908081055,-5.159215927124023,clockwise
9.77946662902832,-6.656832218170166,3.8907296657562256,4.620448589324951,7.120035171508789,-5.122565269470215,clockwise
6.120840072631836,-7.439285278320312,6.857830047607422,4.494614124298096,5.900784492492676,-4.773159980773926,clockwise
5.778666496276856,-8.896513938903809,4.524827480316162,5.161659240722656,3.463503837585449,-4.527599811553955,clockwise
5.778666496276856,-8.896513938903809,4.524827480316162,5.568483352661133,2.6571855545043945,-4.547146797180176,clockwise
6.259624004364014,-9.365508079528809,1.7204395532608032,5.931326866149902,2.431172132492065,-4.569137096405029,clockwise
4.780859470367432,-6.7621169090271,0.5503491759300232,6.225755214691162,2.277238368988037,-4.531264781951904,clockwise
3.507878065109253,-4.4721856117248535,-0.9571290016174316,6.150010108947754,2.102536201477051,-4.511717796325684,clockwise
3.335594892501831,-3.833301782608032,-2.25403904914856,5.398667812347412,1.6786081790924072,-4.520269393920898,clockwise
3.335594892501831,-3.833301782608032,-2.25403904914856,4.796372890472412,1.4391560554504397,-4.508052349090576,clockwise
2.9551358222961426,-5.077569961547852,-1.1772687435150146,4.013266086578369,0.8393040895462036,-4.370001316070557,clockwise
1.935793399810791,-6.659225463867188,-0.430708110332489,3.980280637741089,-0.0879620015621185,-4.3626708984375,clockwise
1.856830358505249,-6.75493860244751,0.0885344371199607,4.009601593017578,-0.4410317242145538,-4.379774570465088,clockwise
3.268595933914185,-5.656632423400879,-2.2851457595825195,3.830012083053589,-0.9883508682250975,-4.531264781951904,clockwise
3.400200843811035,-6.941578388214111,-3.76151704788208,3.6724135875701904,-1.5759859085083008,-4.8672308921813965,clockwise
3.400200843811035,-6.941578388214111,-3.76151704788208,3.5343620777130127,-1.6786081790924072,-5.007725715637207,clockwise
4.634897232055664,-8.193024635314941,-4.508078098297119,3.0212504863739014,-2.03412127494812,-5.2899370193481445,clockwise
5.592026710510254,-9.535398483276367,-2.411965131759644,2.250361204147339,-2.56067156791687,-5.4744133949279785,clockwise
5.407779216766357,-11.196017265319824,-0.6149553656578064,1.5271180868148804,-2.7964584827423096,-5.586809158325195,clockwise
6.539584159851074,-12.284751892089844,-0.0813559740781784,-0.1209477484226226,-3.316900491714477,-5.795718193054199,clockwise
8.097311973571777,-13.143774032592772,-1.6582260131835938,-1.7005987167358398,-3.808021783828736,-6.041279315948486,clockwise
8.097311973571777,-13.143774032592772,-1.6582260131835938,-2.047559976577759,-4.185525417327881,-6.135349750518799,clockwise
8.291130065917969,-15.309279441833496,-3.170490026473999,-1.4916889667510986,-4.660764217376709,-6.294170379638672,clockwise
9.205188751220703,-14.811572074890137,-3.270988702774048,-0.2785463333129883,-4.986956596374512,-6.219646453857422,clockwise
11.263016700744627,-15.95294952392578,-1.8544375896453855,0.0024433890357613,-5.216635227203369,-6.173222064971924,clockwise
12.98106288909912,-17.59203338623047,-0.5886343717575073,-0.1893626451492309,-5.855581760406494,-6.014402389526367,clockwise
12.98106288909912,-17.59203338623047,-0.5886343717575073,-0.3775035738945007,-6.214759826660156,-5.88368034362793,clockwise
14.120046615600586,-22.961524963378903,1.5672988891601562,1.3401988744735718,-7.368039608001709,-5.586809158325195,clockwise
13.574482917785645,-22.00918197631836,1.9884356260299685,3.547800779342652,-8.356389999389648,-4.674203395843506,clockwise
15.089139938354492,-19.137794494628903,3.359522819519043,4.264935493469238,-8.681361198425293,-4.019374847412109,clockwise
18.04188346862793,-19.592432022094727,7.712067127227783,4.652212619781494,-8.698464393615723,-2.6938364505767822,clockwise
18.367305755615234,-18.661623001098636,12.634103775024414,4.354118824005127,-8.472451210021973,-1.682273268699646,clockwise
18.367305755615234,-18.661623001098636,12.634103775024414,4.299142837524414,-8.42724895477295,-1.172826647758484,clockwise
18.19023895263672,-18.62333869934082,11.99761199951172,4.013266086578369,-8.417474746704102,-0.2516690790653229,clockwise
19.958532333374023,-18.218950271606445,8.322237014770508,3.4097492694854736,-7.98988151550293,0.5839699506759644,clockwise
21.83929252624512,-16.34537124633789,6.486942291259766,3.203282833099365,-7.535411834716797,1.0763128995895386,clockwise
22.368106842041016,-12.346964836120604,13.780265808105469,2.8331096172332764,-6.7694091796875,2.210045337677002,clockwise
22.368106842041016,-12.346964836120604,13.780265808105469,3.819017171859741,-7.372926235198975,2.9577224254608154,clockwise
24.033510208129883,-13.86640739440918,13.07199001312256,4.27104377746582,-6.8170552253723145,3.601555347442627,clockwise
25.03370857238769,-12.081361770629885,8.669197082519531,4.065799236297607,-4.580132484436035,4.466515064239502,clockwise
24.16272354125977,-5.905486583709717,5.592026710510254,3.654088020324707,-2.65229868888855,4.377331256866455,clockwise
22.368106842041016,-1.514656662940979,5.474778175354004,3.677300214767456,-1.9693715572357176,4.141544342041016,clockwise
19.743179321289062,0.1244267746806144,7.195217609405518,3.419523000717163,-0.7941014170646667,4.026705265045166,clockwise
19.743179321289062,0.1244267746806144,7.195217609405518,3.049349546432495,-0.471574068069458,4.0719075202941895,clockwise
16.108482360839844,1.2490534782409668,7.869993209838867,2.494700193405152,-0.1795890927314758,3.842229127883911,clockwise
12.516854286193848,2.352144718170166,7.525426864624023,2.2980072498321533,0.0024433890357613,3.402419090270996,#
10.021141052246094,3.13220477104187,5.852844715118408,2.1685078144073486,0.1502684205770492,3.1898443698883057,#
8.248059272766113,2.799602746963501,3.969692707061768,1.6346272230148315,0.4886777997016907,2.548454761505127,#
6.845865249633789,0.7274181246757507,2.392822742462158,1.1166287660598757,0.9150491952896118,1.7726787328720093,#
6.845865249633789,0.7274181246757507,2.392822742462158,1.0274450778961182,1.060430884361267,1.4415994882583618,#
6.020341873168945,-2.3018953800201416,1.4045867919921875,1.119072198867798,1.4770286083221436,0.9761338829994202,#
5.190032482147217,-4.823930263519287,1.5649060010910034,1.0384403467178345,1.9547111988067627,0.7207997441291809,#
3.869194030761719,-4.780859470367432,2.0817556381225586,0.8380824327468872,2.0988712310791016,0.6365028619766235,#
2.2013967037200928,-3.907479047775269,1.7874385118484497,0.7024743556976318,2.0695505142211914,0.3494046330451965,#
2.2013967037200928,-3.907479047775269,1.7874385118484497,0.6914790868759155,1.7690136432647705,0.0916270837187767,#
1.636690616607666,-4.981856822967529,1.490728497505188,0.1172826737165451,1.5784293413162231,0.0537545569241046,#
1.8448662757873533,-7.28375244140625,1.509871006011963,-0.7354600429534912,1.2864443063735962,0.0574196390807628,#
2.2468602657318115,-8.894121170043945,2.031506299972534,-1.054322361946106,1.243685007095337,-0.0354291386902332,#
1.6079767942428589,-9.542576789855955,1.813759446144104,-0.8417474627494812,1.3719629049301147,-0.1661504507064819,#
0.7345964908599854,-9.28893756866455,1.2634103298187256,-0.2785463333129883,1.2070342302322388,-0.2174616158008575,#
0.7345964908599854,-9.28893756866455,1.2634103298187256,-0.100178949534893,1.0274450778961182,-0.2394521236419677,#
0.5359922647476196,-8.843873023986816,1.5529417991638184,0.3042019307613373,0.7354600429534912,-0.1600419729948043,#
1.0839486122131348,-9.542576789855955,2.383251428604126,0.5827482342720032,0.5302154421806335,-0.0684148892760276,#
1.459621787071228,-9.585646629333496,2.9623143672943115,0.6035171151161194,0.4752391576766968,-0.1026223376393318,#
1.5984054803848269,-9.20997428894043,3.950549840927124,0.6621583700180054,0.4337015450000763,-0.2028012871742248,#
2.0817556381225586,-9.497113227844238,4.137190341949463,0.9736905097961426,0.3225273489952087,-0.1673721522092819,#
2.0817556381225586,-9.497113227844238,4.137190341949463,1.0372185707092283,0.1966928243637085,-0.1197260618209838,#
3.041277408599853,-9.999605178833008,5.5106706619262695,1.2216944694519043,-0.0061084721237421,0.0061084721237421,#
4.261617183685303,-12.248858451843262,6.441478729248047,1.7897825241088867,0.2895416021347046,0.1331647038459777,#
4.852644443511963,-11.303693771362305,7.992027282714844,1.815437912940979,0.4410317242145538,0.130721315741539,#
4.984249591827393,-9.561718940734863,8.815157890319824,2.074437141418457,0.5925218462944031,0.0574196390807628,#
4.984249591827393,-9.561718940734863,8.815157890319824,2.235701084136963,0.6536065340042114,0.1453816443681717,#
6.233303070068359,-12.64606761932373,10.23888874053955,2.1367435455322266,0.9639169573783876,0.5754181146621704,#
7.685746192932129,-11.921042442321776,11.942577362060549,2.080545663833618,1.6761648654937744,0.9040539264678956,#
5.450850009918213,-10.411171913146973,12.51206874847412,2.774468183517456,1.69082510471344,0.8564078211784363,#
3.1657044887542725,-6.546762466430664,11.598011016845703,2.5276858806610107,1.964484691619873,0.6462763547897339,#
2.687139749526977,-8.178668022155762,13.186845779418944,1.5430002212524414,1.8410935401916504,0.9834640026092528,#
2.687139749526977,-8.178668022155762,13.186845779418944,1.5613255500793457,1.9119518995285036,1.273005723953247,#
2.4335007667541504,-12.502498626708984,12.744174003601074,1.6553959846496582,2.1648426055908203,1.5918679237365725,#
0.3086740970611572,-9.45164966583252,10.492527961730955,2.1660642623901367,2.536237955093384,1.280335783958435,#
-1.8424735069274905,-5.051248073577881,6.97986364364624,2.2491395473480225,2.653520345687866,1.1361758708953855,#
-3.9146575927734375,-2.100898265838623,4.625326156616211,1.640735745429993,2.9491703510284424,1.3072130680084229,#
-5.592026710510254,-0.1531406491994857,3.3427734375,0.6291726231575012,3.140976428985596,1.4745851755142212,#
-5.592026710510254,-0.1531406491994857,3.3427734375,0.4190412163734436,3.0102550983428955,1.4122787714004517,#
-7.049255847930908,0.1339980661869049,2.871387243270874,0.6071821451187134,2.666959047317505,1.2155860662460327,#
-7.563712120056152,0.4737788736820221,2.610569477081299,1.6480658054351809,2.004800796508789,1.0958600044250488,#
-7.302894115447998,1.4069796800613403,1.3663017749786377,2.0243477821350098,1.69082510471344,0.96147358417511,#
-7.331608772277832,2.548356056213379,1.3328022956848145,2.4397237300872803,1.0201148986816406,0.7366817593574524,#
-7.331608772277832,2.548356056213379,1.3328022956848145,2.629086494445801,0.7085827589035034,0.5326588153839111,#
-7.28375244140625,1.4404792785644531,2.0817556381225586,2.414068460464477,0.3603998720645904,0.3713951408863067,#
-7.401000499725342,-0.3924228847026825,3.759124279022217,1.705485463142395,-0.0635281130671501,-0.0024433890357613,#
-7.140182495117188,-2.4335007667541504,4.893322467803955,1.3878449201583862,-0.3188622593879699,-0.0635281130671501,#
-6.927221298217773,-3.35713005065918,6.144768238067627,0.5680879354476929,-0.549762487411499,0.1417165547609329,punch
-6.8650078773498535,-2.9527432918548584,6.297908782958984,0.1111741960048675,-0.416597843170166,0.5412106513977051,punch
-6.8650078773498535,-2.9527432918548584,6.297908782958984,0.1539334952831268,-0.4031591713428497,0.7134696245193481,punch
-7.176074504852295,-2.9790639877319336,5.955735206604004,0.2101314514875412,-0.3909422159194946,1.012784719467163,punch
-7.216752529144287,-3.067598581314087,6.649653911590576,0.5399889945983887,-0.3213056325912475,1.2607886791229248,punch
-7.211967468261719,-1.581655740737915,7.267002105712891,0.6108472347259521,-0.2492256760597229,1.326760172843933,punch
-7.824529647827148,1.3184452056884766,7.680960178375244,0.6132906079292297,-0.0879620015621185,1.4758068323135376,punch
-8.965906143188477,2.96949315071106,7.520641803741455,0.4495835602283478,0.0244338884949684,1.4977973699569702,punch
-8.965906143188477,2.96949315071106,7.520641803741455,0.2443388998508453,0.0171037223190069,1.382958173751831,punch
-10.13599681854248,3.103491306304932,7.786244869232178,-0.1734806150197982,-0.2541124522686004,1.0408836603164673,punch
-10.73180866241455,2.89052963256836,6.821937084197998,-0.5082249045372009,-0.4886777997016907,0.7806627750396729,punch
-10.612168312072754,3.019742012023926,5.26899528503418,-0.5534276366233826,-0.6035171151161194,0.6817055344581604,punch
-10.918450355529783,2.0817556381225586,5.051248073577881,-0.0757450610399246,-0.63283771276474,0.605960488319397,punch
-10.918450355529783,2.0817556381225586,5.051248073577881,0.2724378705024719,-0.4703523814678192,0.5644228458404541,punch
-11.839686393737791,1.241874933242798,6.501298904418945,0.9932376146316528,-0.3213056325912475,0.2223483920097351,punch
-12.373285293579102,1.380658507347107,7.582855224609375,1.5002408027648926,-0.7098045349121094,-0.2516690790653229,punch
-12.452248573303224,2.699103832244873,8.097311973571777,1.6834949254989624,-1.022558331489563,-0.5619794726371765,punch
-12.942776679992676,4.706681728363037,6.802794933319092,1.414722204208374,-1.359745979309082,-1.2986613512039185,punch
-11.942577362060549,5.063212871551514,5.460421085357666,1.2131426334381104,-1.9082868099212649,-1.9767017364501955,punch
-11.942577362060549,5.063212871551514,5.460421085357666,1.4110571146011353,-2.6144261360168457,-2.344431638717652,punch
-6.173482418060303,5.223531246185303,3.426522016525269,1.5601038932800293,-4.525156497955322,-3.2594807147979736,punch
1.9094725847244265,5.130211353302002,3.2614171504974365,2.7646946907043457,-6.246523857116699,-5.114012718200684,punch
18.625732421875,5.084747791290283,15.527027130126951,3.5306971073150635,-6.437108039855957,-6.460320472717285,punch
62.08896255493164,-9.509077072143556,11.172088623046877,5.730968952178955,-0.919935941696167,-9.0979585647583,punch
24.55035972595215,-2.0410776138305664,3.972085475921631,4.114666938781738,-5.97164249420166,-4.591127872467041,punch
24.55035972595215,-2.0410776138305664,3.972085475921631,3.252150535583496,-4.869674205780029,-3.627210855484009,punch
15.086747169494627,3.235095977783203,4.914857387542725,-4.3003644943237305,-1.237576603889465,-2.3969645500183105,punch
7.219145774841309,0.4929214715957641,11.385049819946287,-4.611896514892578,-1.0188932418823242,-0.0952921733260154,punch
4.220939159393311,-9.12383270263672,10.10488986968994,-2.7695813179016118,-1.2229161262512207,0.7831061482429504,punch
5.66620397567749,-3.122633695602417,5.912664413452148,-0.0048867780715227,-0.9480348825454712,0.3555130958557129,punch
5.66620397567749,-3.122633695602417,5.912664413452148,-0.3042019307613373,-0.4727957546710968,-0.0891837030649185,punch
6.728617191314697,12.215359687805176,10.8969144821167,0.5790832042694092,0.0708582773804664,0.2186833024024963,punch
4.869394302368164,5.400600433349609,9.750752449035645,0.684148907661438,0.5143333673477173,0.1893626451492309,punch
2.225324869155884,-0.1674975752830505,7.482356548309326,0.1380514800548553,0.2186833024024963,-0.1685938388109207,punch
3.084348201751709,1.6223337650299072,8.262415885925293,-0.130721315741539,0.0244338884949684,0.0366508327424526,#
2.919243574142456,2.581855773925781,9.77946662902832,-0.6145123243331909,-0.0012216945178806,0.2956500649452209,#
2.919243574142456,2.581855773925781,9.77946662902832,-0.5717529654502869,0.129499614238739,0.3274141252040863,#
2.1032910346984863,-0.0622133873403072,9.657432556152344,-0.3115321099758148,0.2089097648859024,0.2309002727270126,#
2.431107759475708,-0.519242525100708,9.384650230407717,-0.0647498071193695,0.1637070626020431,0.2101314514875412,#
2.2707886695861816,2.0195422172546387,9.075976371765137,-0.0757450610399246,0.1795890927314758,0.2296785563230514,#
1.8113667964935305,2.1367905139923096,8.623733520507812,-0.1649287492036819,0.1856975704431533,0.2345653474330902,#
1.8113667964935305,2.1367905139923096,8.623733520507812,-0.4837909936904907,0.0122169442474842,0.1649287492036819,#
1.8233308792114256,1.062413215637207,8.848658561706543,-0.4874561131000519,-0.0671931952238082,0.1343863904476165,#
2.2229323387146,0.4570291042327881,9.339186668395996,-0.3261924386024475,-0.0439810007810592,0.1441599577665329,#
2.4670000076293945,-0.1794617027044296,9.516255378723145,-0.1246128380298614,0.0280989725142717,0.1404948681592941,#
2.414358139038086,-0.3732803165912628,9.652647018432615,-0.040315918624401,0.0671931952238082,0.178367406129837,#
2.7278177738189697,-0.1507478207349777,9.547362327575684,0.040315918624401,0.2028012871742248,0.3139754831790924,#
2.7278177738189697,-0.1507478207349777,9.547362327575684,-0.0122169442474842,0.2553341388702392,0.3567348122596741,#
3.397808313369751,-0.1339980661869049,9.695716857910156,-0.2809897363185882,0.3469612300395965,0.448361873626709,#
3.510270833969116,-0.1316052377223968,10.50209903717041,-0.4178195297718048,0.5375455617904663,0.707361102104187,#
3.7878382205963135,-0.882951557636261,9.853643417358398,-0.471574068069458,0.6193991303443909,0.7684457898139954,#
4.752145767211914,-1.6797614097595217,9.21715259552002,-0.5656445622444153,0.6096255779266357,0.8380824327468872,#
4.821537494659424,-1.519442439079285,8.623733520507812,-0.4789042472839355,0.6865922808647156,1.1398409605026243,#
4.821537494659424,-1.519442439079285,8.623733520507812,-0.5680879354476929,0.9223793148994446,1.4709200859069824,#
4.41475772857666,-1.3974084854125977,8.688338279724121,-0.2345653474330902,1.450151443481445,2.1966066360473637,#
5.345565319061279,-0.969093143939972,8.221738815307617,-1.1630531549453735,1.4306042194366455,2.1746160984039307,#
6.838686943054199,-0.6652047038078308,7.846065521240234,-1.4843589067459106,1.424495816230774,2.195384979248047,#
7.893921852111816,-2.89052963256836,6.608975887298584,-1.273005723953247,1.6163017749786377,2.2833471298217773,#
7.893921852111816,-2.89052963256836,6.608975887298584,-1.1141853332519531,2.015795946121216,2.366422176361084,#
5.946164608001709,-3.208775281906128,6.530013084411621,-0.6988092660903931,2.2320358753204346,2.453162431716919,#
3.1824538707733154,-2.380858421325684,5.5274200439453125,-0.0134386392310261,2.222262382507324,2.3480966091156006,#
2.864208698272705,-1.2251251935958862,4.998606204986572,0.0891837030649185,1.9217253923416135,2.108644723892212,#
4.177868366241455,-0.2512463629245758,3.8668015003204346,-0.0366508327424526,1.5857594013214111,1.7653485536575315,#
2.4095723628997803,0.519242525100708,2.768495798110962,-0.5057815313339233,2.071993827819824,1.6114150285720823,#
2.4095723628997803,0.519242525100708,2.768495798110962,-0.6597149968147278,2.326106309890747,1.5588821172714231,#
-0.5383850932121277,-1.9046868085861208,4.058227062225342,0.0513111688196659,1.9938054084777832,1.4599249362945557,#
-1.8305093050003047,-3.933800458908081,6.314659118652344,0.6450546979904175,0.6865922808647156,1.244906663894653,#
-1.7922240495681765,-1.5337992906570437,6.427121639251709,0.6768187284469604,0.0342074446380138,1.244906663894653,#
-2.421536445617676,4.084547996520996,5.649453639984131,-0.3897205293178558,-0.8063183426856995,1.1080769300460815,#
-3.8572301864624015,3.1513471603393555,3.4025940895080566,-0.7733326554298401,-0.4703523814678192,0.7098045349121094,#
-3.8572301864624015,3.1513471603393555,3.4025940895080566,-1.1997039318084717,-0.6169556975364685,0.1062874197959899,#
-5.158926010131836,1.868794322013855,4.347758769989014,-1.9938054084777832,-1.4587032794952393,-0.577861487865448,#
-4.589433670043945,-0.1579262912273407,5.462814331054688,-2.349318504333496,-2.106201171875,-0.9162708520889282,#
-3.572484016418457,-0.662811815738678,6.403193473815918,-2.525242567062378,-2.225927352905273,-1.1019684076309204,#
-2.868994235992432,-1.5026925802230835,6.908078193664551,-2.624199867248535,-2.5618932247161865,-1.6566176414489746,#
-2.868994235992432,-1.5026925802230835,6.908078193664551,-3.2423770427703857,-2.886864185333252,-2.161177635192871,#
-1.5050854682922363,-0.4474578499794006,8.71944522857666,-3.366989850997925,-3.068896532058716,-2.366422176361084,#
0.2799602448940277,-1.7132610082626345,10.669595718383787,-3.417079448699951,-3.265589475631714,-2.827000856399536,#
2.447857618331909,-3.665804386138916,9.382257461547852,-3.7945830821990967,-3.2423770427703857,-3.0383541584014893,#
3.2614171504974365,-3.201596736907959,8.298308372497559,-4.702301979064941,-2.908854484558105,-3.362103223800659,#
3.328416109085083,-6.288337707519531,7.080362319946289,-3.8202385902404794,-2.663294076919556,-3.698069095611572,#
3.328416109085083,-6.288337707519531,7.080362319946289,-3.366989850997925,-2.7940151691436768,-3.883766651153565,#
4.335794448852539,-7.841279983520508,6.680760860443115,-3.155636787414551,-2.7817983627319336,-3.864219665527344,#
5.441278457641602,-7.178467750549316,7.379465103149414,-3.309570550918579,-2.1917200088500977,-3.651644706726074,#
5.814558982849121,-4.493720531463623,6.860222339630127,-3.828790664672852,-1.94249427318573,-3.495267868041992,#
6.238089084625244,-6.087340831756592,6.195017814636231,-3.9595117568969727,-2.0756590366363525,-3.593003273010254,#
8.554340362548828,-11.578868865966797,7.556533336639404,-3.718837976455689,-2.5215773582458496,-3.893540143966675,#
8.554340362548828,-11.578868865966797,7.556533336639404,-3.3205654621124268,-2.757364511489868,-3.960733652114868,#
12.44267749786377,-15.014962196350098,7.75753116607666,-3.2765846252441406,-2.431172132492065,-3.621102333068848,#
12.803994178771973,-11.475976943969728,6.702296257019043,-2.97604775428772,-1.804442763328552,-3.023693799972534,#
10.131211280822754,-9.05683422088623,4.228117942810059,-2.743925809860229,-1.640735745429993,-2.828222751617432,#
9.920641899108888,-9.827322006225586,3.687339782714844,-2.685284376144409,-1.571099042892456,-2.6022093296051025,#
9.920641899108888,-9.827322006225586,3.687339782714844,-2.817227363586426,-1.6163017749786377,-2.4604926109313965,#
12.009575843811035,-11.949756622314451,3.91705060005188,-2.7231569290161133,-1.5882028341293335,-2.317554235458374,#
13.483555793762209,-11.956934928894045,3.644268989562988,-2.1770594120025635,-1.3621894121170044,-1.9840317964553835,#
11.98564910888672,-10.401599884033203,2.627319574356079,-1.751909852027893,-1.257123589515686,-1.820324778556824,#
10.559525489807127,-8.9371919631958,1.4404792785644531,-1.4428211450576782,-1.0738694667816162,-1.382958173751831,#
9.927821159362791,-8.066205024719238,0.7800601720809937,-1.3915101289749146,-0.9602518677711488,-1.0017894506454468,#
9.927821159362791,-8.066205024719238,0.7800601720809937,-1.2998830080032349,-0.8502993583679199,-0.896723747253418,#
9.506684303283691,-7.056434154510498,0.6173481941223145,-1.1606097221374512,-0.5693095922470093,-0.6878139972686768,#
9.05683422088623,-5.912664413452148,0.5000999569892883,-1.045770525932312,-0.365286648273468,-0.4666872918605804,#
8.894121170043945,-5.7547383308410645,0.3565305471420288,-0.989572525024414,-0.2712161839008331,-0.4031591713428497,#
8.810372352600098,-5.685347080230713,0.236889436841011,-0.9883508682250975,-0.0806318372488021,-0.3530696928501129,#
8.793622970581055,-5.726025104522705,0.3278167247772217,-0.8796200752258301,0.0830752253532409,-0.31641885638237,#
8.793622970581055,-5.726025104522705,0.3278167247772217,-0.7941014170646667,0.1185043603181839,-0.3225273489952087,#
9.054441452026367,-5.529813289642334,0.4019941985607147,-0.5998519659042358,0.1600419729948043,-0.3640649616718292,#
9.083154678344728,-5.266602516174316,0.1722832471132278,-0.393385648727417,0.2235700935125351,-0.3909422159194946,#
9.08554744720459,-4.828716278076172,0.0119641125202178,-0.3213056325912475,0.2370087206363678,-0.3811686933040619,#
9.140583038330078,-4.567898273468018,-0.1746760606765747,-0.178367406129837,0.2370087206363678,-0.3567348122596741,#
9.140583038330078,-4.567898273468018,-0.1746760606765747,-0.0977355539798736,0.2296785563230514,-0.3445178270339966,#
9.166903495788574,-4.488935470581055,-0.2536391913890838,0.0452026948332786,0.1722589135169983,-0.2956500649452209,#
9.327221870422363,-4.445864677429199,-0.1698903888463974,0.2309002727270126,0.1111741960048675,-0.2272351831197738,#
9.489934921264648,-4.419543266296387,-0.0263210479170084,0.2980934381484985,0.0757450610399246,-0.1918060332536697,#
9.74835968017578,-3.8668015003204346,-0.0311066936701536,0.2516690790653229,-0.0048867780715227,-0.0806318372488021,#
9.753145217895508,-3.7902309894561768,-0.0478564500808715,0.2626643180847168,-0.0244338884949684,-0.007330167107284,#
9.753145217895508,-3.7902309894561768,-0.0478564500808715,0.256555825471878,-0.0158820282667875,0.0378725305199623,#
9.652647018432615,-3.5030922889709477,-0.064606212079525,0.2235700935125351,0.0024433890357613,0.1331647038459777,#
9.351150512695312,-3.5198421478271484,-0.0622133873403072,0.2504473626613617,0.0061084721237421,0.1869192570447921,#
9.207581520080566,-3.704089403152466,-0.0143569353967905,0.258999228477478,-0.0097735561430454,0.2028012871742248,#
9.336793899536133,-3.708875179290772,0.0430708117783069,0.3274141252040863,-0.0415376126766204,0.2076880484819412,#
9.351150512695312,-3.641876220703125,0.0550349205732345,0.4385882914066314,-0.0342074446380138,0.1930277347564697,#
9.351150512695312,-3.641876220703125,0.0550349205732345,0.4642439186573028,-0.0219905003905296,0.1893626451492309,#
9.250652313232422,-3.3020951747894287,0.0334995165467262,0.5057815313339233,0.0232121963053941,0.1588202863931656,#
9.205188751220703,-3.230310440063477,0.1028913781046867,0.5534276366233826,0.0574196390807628,0.1136175915598869,#
9.169296264648438,-3.206382274627685,0.1459621787071228,0.5632011890411377,0.0635281130671501,0.0928487852215766,#
9.40379238128662,-3.1585259437561035,0.3756731450557709,0.5412106513977051,0.0733016654849052,0.0610847249627113,#
9.40379238128662,-3.1585259437561035,0.3756731450557709,0.5387672781944275,0.0781884491443634,0.0415376126766204,#
9.645467758178713,-3.2159535884857178,0.6867401003837585,0.5583143830299377,0.0965138673782348,0.0109952501952648,#
9.547362327575684,-3.115455150604248,0.7154539823532104,0.5729747414588928,0.1478250324726104,0.0097735561430454,#
9.128618240356444,-3.153740167617798,0.8709874749183655,0.6084038615226746,0.199136197566986,0.0061084721237421,#
8.7505521774292,-3.1968109607696533,1.179661512374878,0.6853706240653992,0.2748812437057495,0.0134386392310261,#
8.791230201721191,-3.5365920066833496,1.2035897970199585,0.8490777015686035,0.2663294076919555,0.0342074446380138,#
8.791230201721191,-3.5365920066833496,1.2035897970199585,0.9333745837211608,0.2418954968452453,0.0500894747674465,#
9.667003631591797,-4.132404804229736,1.1389836072921753,1.0262233018875122,0.2211267054080963,0.0806318372488021,#
10.815558433532717,-4.086941242218018,1.7754744291305542,1.119072198867798,0.3054236173629761,0.0769667476415634,#
11.533404350280762,-4.620540142059326,1.7156537771224976,1.26567542552948,0.3518480062484741,0.0525328628718853,#
11.327622413635254,-4.589433670043945,1.978864312171936,1.3426421880722046,0.4288147687911987,0.0488677769899368,#
10.080962181091309,-4.386044025421143,2.2468602657318115,1.3670761585235596,0.6071821451187134,0.0561979450285434,#
10.080962181091309,-4.386044025421143,2.2468602657318115,1.3340904712677002,0.6389462351799011,0.0684148892760276,#
8.73619556427002,-4.141976356506348,2.44067907333374,1.180156946182251,0.6145123243331909,0.1319430023431778,#
7.688138484954834,-4.063012599945068,2.778067111968994,1.0640958547592163,0.5387672781944275,0.2345653474330902,#
7.171289443969727,-4.347758769989014,2.931207656860352,1.0616525411605835,0.5021164417266846,0.2980934381484985,#
6.982256412506104,-4.737788677215576,3.079562902450561,1.1337324380874634,0.445918470621109,0.4043808877468109,#
6.982256412506104,-4.737788677215576,3.079562902450561,1.237576603889465,0.416597843170166,0.4288147687911987,#
6.826723098754883,-4.668396949768066,3.050848960876465,1.326760172843933,0.3738385140895843,0.4740174412727356,#
7.013362884521484,-4.211367607116699,3.510270833969116,1.414722204208374,0.3481829464435577,0.4727957546710968,#
7.362715244293213,-4.534398555755615,4.046263217926025,1.4758068323135376,0.3286358118057251,0.4556920528411865,#
7.814958095550537,-5.333601474761963,4.2137603759765625,1.6480658054351809,0.2516690790653229,0.4202629029750824,#
8.365307807922363,-5.72841739654541,4.256831645965576,1.8239898681640625,0.2137965410947799,0.4495835602283478,#
8.365307807922363,-5.72841739654541,4.256831645965576,1.9290555715560915,0.2675510942935943,0.5045598149299622,#
8.597411155700684,-5.663811206817627,4.541577339172363,2.1257483959198,0.4544703662395477,0.6120689511299133,#
8.59501838684082,-5.740381240844727,4.934000015258789,2.26990818977356,0.5729747414588928,0.6963658928871155,#
8.58066177368164,-5.6925249099731445,5.297709465026856,2.3468751907348637,0.5827482342720032,0.7427902817726135,#
9.08554744720459,-5.891129493713379,5.934200286865234,2.611982822418213,0.5583143830299377,0.8234220743179321,#
9.08554744720459,-5.891129493713379,5.934200286865234,2.947948932647705,0.5534276366233826,0.8906152844429016,#
9.67657470703125,-5.910271644592285,5.857630252838135,3.046905994415283,0.5949652194976807,0.95169997215271,#
9.745966911315918,-5.178067684173584,5.989234924316406,3.3449995517730717,0.8014315962791443,1.1080769300460815,#
9.7005033493042,-4.409972190856934,6.037091255187988,3.362103223800659,0.8820634484291077,1.3011046648025513,#
10.25563907623291,-4.383650779724121,6.498906135559082,3.303461790084839,1.0494356155395508,1.3792930841445925,#
10.717452049255373,-4.271188735961914,6.740581512451172,2.9442837238311768,1.1764918565750122,1.4953540563583374,#
10.717452049255373,-4.271188735961914,6.740581512451172,2.743925809860229,1.2620103359222412,1.572320818901062,#
10.470992088317873,-4.223331928253174,6.814758777618408,2.4751532077789307,1.381736397743225,1.6700563430786133,#
9.949356079101562,-3.684947013854981,6.618547439575195,2.186833143234253,1.4098354578018188,1.7824522256851196,#
9.597611427307127,-3.73758864402771,6.853044033050537,2.15506911277771,1.4025052785873413,1.8142162561416624,#
9.91107177734375,-4.35972261428833,7.302894115447998,2.082988977432251,1.3194299936294556,1.8252116441726685,#
9.743573188781738,-4.431507587432861,7.231109619140625,2.093984365463257,1.2546802759170532,1.8325417041778564,#
9.743573188781738,-4.431507587432861,7.231109619140625,2.178281307220459,1.2791141271591189,1.8496454954147337,#
8.609375953674316,-3.88594388961792,6.412764549255371,2.28579044342041,1.360967755317688,1.887518048286438,#
7.456035614013672,-3.641876220703125,6.479763507843018,2.55089807510376,1.4257174730300903,1.8557538986206052,#
7.003791332244873,-4.130012035369873,6.64486837387085,2.719491958618164,1.4208307266235352,1.803221106529236,#
6.912864685058594,-3.9912283420562735,6.130411148071289,3.0774483680725098,1.4819154739379885,1.7030421495437622,#
6.912864685058594,-3.9912283420562735,6.130411148071289,3.1495285034179688,1.69082510471344,1.6700563430786133,#
6.484549045562744,-2.3401806354522705,5.034498691558838,3.0395758152008057,1.72991943359375,1.7238109111785889,#
4.984249591827393,-0.9858429431915284,4.713860511779785,2.742703914642334,1.786117434501648,1.7787871360778809,#
4.529613494873047,-0.5982056856155396,5.249853134155273,2.515469074249268,1.8325417041778564,1.6358489990234375,#
4.663610935211182,-1.777867317199707,6.242874622344971,2.482483386993408,1.6163017749786377,1.5601038932800293,#
4.867001533508301,-2.7804601192474365,6.522834300994873,2.415289878845215,1.4587032794952393,1.3230950832366943,#
4.867001533508301,-2.7804601192474365,6.522834300994873,2.3932995796203613,1.4220523834228516,1.2387982606887815,#
4.455435752868652,-1.727617859840393,6.041877269744873,2.218597173690796,1.3792930841445925,1.248571753501892,#
3.730410575866699,-0.1603191047906875,6.041877269744873,1.887518048286438,1.227802872657776,1.281557559967041,#
2.770888566970825,0.2129612118005752,6.094519138336182,1.7482447624206543,1.2290246486663818,1.0640958547592163,#
2.720639228820801,-0.260817676782608,6.305087566375732,1.4574815034866333,0.9700254201889038,0.8319739699363708,#
3.3379876613616943,0.2321037948131561,6.252446174621582,1.1777135133743286,0.6817055344581604,0.6817055344581604,#
3.3379876613616943,0.2321037948131561,6.252446174621582,1.0030112266540527,0.5351021885871887,0.5570926666259766,#
3.146562099456787,1.2610174417495728,6.845865249633789,0.8759549260139465,0.4618005454540252,0.4581354260444641,#
2.801995038986206,1.6223337650299072,6.2189459800720215,0.601073682308197,0.4666872918605804,0.4300364553928375,#
1.765903115272522,0.0789631456136703,7.123432636260986,0.5705313086509705,0.4593571126461029,0.4202629029750824,#
1.765903115272522,0.0789631456136703,7.123432636260986,0.4801259338855743,0.4043808877468109,0.3542913794517517,#
1.6965112686157229,0.1483550071716308,7.592426776885986,0.5522059202194214,0.3017585575580597,0.2895416021347046,#
1.8472589254379272,0.6221339106559753,7.877171993255615,0.5937435030937195,0.2345653474330902,0.261442631483078,#
1.9573287963867188,1.0600204467773438,8.044669151306152,0.5204418301582336,0.1099525094032287,0.2223483920097351,#
1.8448662757873533,1.043270707130432,7.735995292663574,0.4434750974178314,0.0830752253532409,0.2309002727270126,#
1.4548362493515017,1.1653046607971191,7.6737823486328125,0.2455605864524841,0.0977355539798736,0.2712161839008331,#
1.4548362493515017,1.1653046607971191,7.6737823486328125,-0.0342074446380138,0.0488677769899368,0.3188622593879699,#
1.4045867919921875,0.8207381367683411,7.604390144348144,-0.1062874197959899,-0.0183254163712263,0.3274141252040863,#
1.6127625703811646,0.7322037816047668,7.692924976348877,-0.2186833024024963,-0.1453816443681717,0.2944283783435821,#
1.7132610082626345,1.1724830865859983,7.664210796356201,-0.1502684205770492,-0.2345653474330902,0.2431172132492065,#
1.7491532564163208,1.6893328428268433,7.767102241516113,-0.1026223376393318,-0.2553341388702392,0.2321219593286514,#
1.9860427379608157,1.6055840253829956,8.315058708190918,-0.0366508327424526,-0.2736595571041107,0.2186833024024963,#
1.9860427379608157,1.6055840253829956,8.315058708190918,0.0488677769899368,-0.2809897363185882,0.2052446752786636,#
2.273181438446045,1.5433706045150757,8.525627136230469,0.0207688063383102,-0.287098228931427,0.1698155403137207,#
2.1056838035583496,1.7012970447540283,8.650053977966309,-0.1380514800548553,-0.2553341388702392,0.1075091138482093,#
2.1272192001342773,1.8376877307891848,8.599804878234863,-0.21135313808918,-0.256555825471878,0.0513111688196659,#
2.132004976272583,1.9860427379608157,8.24566650390625,-0.2699944972991943,-0.261442631483078,0.0109952501952648,#
2.132004976272583,1.9860427379608157,8.24566650390625,-0.4104893505573272,-0.258999228477478,-0.0464243926107883,#
2.2683956623077397,1.5337992906570437,8.09252643585205,-0.4104893505573272,-0.2541124522686004,-0.0708582773804664,#
1.9956141710281368,1.4452648162841797,7.556533336639404,-0.4324798583984375,-0.2223483920097351,-0.0904053896665573,#
1.65583336353302,1.9812570810317995,7.329216003417969,-0.5570926666259766,-0.2272351831197738,-0.1014006435871124,#
1.919043779373169,2.909672498703003,6.888936519622803,-0.6413896083831787,-0.2797680497169494,-0.0781884491443634,#
1.648654818534851,2.25403904914856,6.443871021270752,-0.7562289237976074,-0.2785463333129883,-0.0232121963053941,#
1.648654818534851,2.25403904914856,6.443871021270752,-0.8099834322929382,-0.577861487865448,-0.3738385140895843,#
2.09850549697876,2.476571559906006,5.879165172576904,-0.8173136115074158,-0.6291726231575012,-0.5155550837516785,#
2.7326035499572754,3.4959137439727783,5.460421085357666,-1.100746750831604,-0.8026533126831055,-0.790436327457428,#
3.292524099349976,4.163511276245117,5.37188720703125,-1.641957402229309,-0.6536065340042114,-1.0286667346954346,#
3.8213374614715576,3.2374887466430664,6.831508636474609,-1.9363857507705688,-0.445918470621109,-1.1948171854019165,#
3.8356947898864746,1.3878371715545654,7.721638679504394,-2.200271844863892,-0.5363238453865051,-1.4660333395004272,#
3.8356947898864746,1.3878371715545654,7.721638679504394,-2.2918989658355717,-0.471574068069458,-1.7824522256851196,#
3.670589685440064,-0.7034898400306702,6.340980052947998,-2.0634419918060303,-0.3726168274879455,-1.924168825149536,#
3.5030922889709477,-0.6580261588096619,7.257431030273437,-1.5039058923721311,-0.2846547961235046,-2.2833471298217773,#
4.340579986572266,0.6245267391204834,8.906085968017578,-0.9761338829994202,-0.3677300214767456,-2.260134696960449,#
5.697310447692871,-0.8781659603118896,9.597611427307127,-0.7757760286331177,-0.3225273489952087,-2.2674648761749268,#
5.697310447692871,-0.8781659603118896,9.597611427307127,-0.3762818872928619,-0.5204418301582336,-2.574110269546509,#
6.211767196655273,-1.4715858697891235,9.76989459991455,-0.5289937257766724,-0.8515210747718811,-2.6144261360168457,#
5.333601474761963,-2.5363922119140625,9.42772102355957,-0.8380824327468872,-0.9724688529968262,-2.5435678958892822,#
5.927021503448486,-0.9643075466156006,8.477770805358887,-0.8466342687606812,-1.501462459564209,-2.516690492630005,#
7.231109619140625,1.234696388244629,7.329216003417969,-0.9040539264678956,-1.5918679237365725,-2.470266103744507,#
7.759923934936523,-0.8398807048797607,7.365108013153076,-1.233911395072937,-1.0005677938461304,-2.180724620819092,#
7.759923934936523,-0.8398807048797607,7.365108013153076,-1.7238109111785889,-0.4569137394428253,-1.9632630348205569,#
7.575676441192627,-3.3930225372314453,7.762316703796387,-1.847202181816101,-0.1624853760004043,-1.838650107383728,#
7.695317268371582,-3.902693748474121,9.205188751220703,-1.437934398651123,0.1905843466520309,-1.665169596672058,#
8.559126853942871,-2.2013967037200928,8.927621841430664,-1.0421053171157837,0.2956500649452209,-1.4415994882583618,#
9.075976371765137,-2.8354949951171875,7.640282154083252,-1.0140063762664795,0.3897205293178558,-1.3915101289749146,#
10.183852195739746,-4.871786594390869,8.080562591552734,-1.1178505420684814,0.5522059202194214,-1.2192511558532717,#
10.183852195739746,-4.871786594390869,8.080562591552734,-0.9626952409744264,0.6389462351799011,-1.0408836603164673,#
9.619147300720217,-4.144368648529053,8.520841598510742,-0.7611156702041626,0.7696675062179565,-0.891836941242218,#
8.286344528198242,-2.964707374572754,7.288537979125977,-0.4654656052589416,0.8759549260139465,-0.52655029296875,#
7.712067127227783,-3.7016968727111816,6.905685901641846,-0.6377245187759399,0.6670452356338501,-0.3042019307613373,#
8.757731437683105,-4.151546955108643,8.233702659606934,-0.7366817593574524,0.5106682777404785,-0.175924003124237,#
8.757731437683105,-4.151546955108643,8.233702659606934,-0.4556920528411865,0.4349232316017151,-0.003665083553642,#
8.551947593688965,-3.192025184631348,9.138189315795898,-0.1918060332536697,0.5289937257766724,0.0586413368582725,#
8.556733131408691,-2.9862425327301025,9.384650230407717,0.130721315741539,0.5192201733589172,0.2504473626613617,#
8.707481384277344,-2.715853452682495,8.764908790588379,0.2675510942935943,0.3090887069702148,0.2186833024024963,#
8.030312538146973,-2.629711866378784,9.23390293121338,0.2907632887363434,0.2516690790653229,0.2370087206363678,#
7.142575740814209,-2.25403904914856,9.851251602172852,0.2064663618803024,0.3616215586662292,0.3555130958557129,#
7.142575740814209,-2.25403904914856,9.851251602172852,0.155155211687088,0.5167768001556396,0.3982723951339721,#
5.862415313720703,-1.8185452222824097,10.317852020263672,0.1575985848903656,0.5754181146621704,0.4202629029750824,#
5.577669143676758,-1.6821542978286743,9.918249130249023,0.1331647038459777,0.4752391576766968,0.393385648727417,#
5.335994720458984,-1.916650891304016,9.504291534423828,0.1417165547609329,0.3640649616718292,0.3054236173629761,#
4.924428939819336,-1.835294842720032,9.573683738708496,0.1441599577665329,0.3616215586662292,0.3005368411540985,#
3.69930362701416,-2.3712873458862305,9.547362327575684,0.1600419729948043,0.4593571126461029,0.342074453830719,#
3.69930362701416,-2.3712873458862305,9.547362327575684,0.1160609796643257,0.6145123243331909,0.3836120665073395,#
3.902693748474121,-1.6797614097595217,10.303494453430176,0.1734806150197982,0.5717529654502869,0.3872771561145782,#
3.9146575927734375,-1.356730580329895,9.899106979370115,0.2235700935125351,0.522885262966156,0.3310791850090027,#
3.728017807006836,-1.428515076637268,9.379864692687988,0.3310791850090027,0.4520269632339477,0.2736595571041107,#
3.445664882659912,-0.6340980529785156,8.882158279418945,0.4007157981395721,0.4031591713428497,0.2431172132492065,#
3.445664882659912,-0.6340980529785156,8.882158279418945,0.4923428893089294,0.3213056325912475,0.2040229737758636,#
3.1202406883239746,-0.4187439680099487,8.444271087646484,0.4324798583984375,0.258999228477478,0.1710372269153595,#
3.5676987171173096,-0.1890329867601394,9.29611587524414,0.3396310806274414,0.1062874197959899,0.1136175915598869,#
3.716053485870361,-0.5335994362831116,9.841679573059082,0.3799469769001007,0.0549762547016143,0.0781884491443634,#
3.5605196952819824,-1.244267821311951,9.35832977294922,0.3836120665073395,0.0415376126766204,0.0733016654849052,#
3.579662799835205,-0.7728817462921143,8.894121170043945,0.365286648273468,0.0830752253532409,-0.0134386392310261,#
3.579662799835205,-0.7728817462921143,8.894121170043945,0.2260134816169738,0.0781884491443634,-0.0733016654849052,#
3.5126638412475586,-0.7345964908599854,8.740981101989746,0.0989572554826736,0.0842969194054603,-0.1111741960048675,#
3.6299118995666495,-0.8207381367683411,8.717053413391113,-0.128277912735939,0.0513111688196659,-0.1612636744976043,#
3.4193434715271,-1.0911270380020142,8.973085403442383,-0.3274141252040863,0.0757450610399246,-0.1441599577665329,#
3.4097721576690674,-1.37587308883667,9.446864128112791,-0.3518480062484741,0.1075091138482093,-0.1136175915598869,#
2.981456995010376,-1.2921242713928225,9.554540634155272,-0.3090887069702148,0.1185043603181839,-0.0598630309104919,#
2.981456995010376,-1.2921242713928225,9.554540634155272,-0.2394521236419677,0.1331647038459777,0.0158820282667875,#
3.0101709365844727,-0.8853443264961243,9.63828945159912,-0.2883199155330658,0.100178949534893,0.003665083553642,#
