accX,accY,accZ,gyrX,gyrY,gyrZ,annotation
10.55474090576172,0.4115655124187469,-2.445464611053467,6.624027729034424,-0.4752391576766968,0.8441908955574036,#
12.131609916687012,7.16650390625,-1.3280165195465088,6.426113128662109,-0.1123958900570869,0.6988092660903931,#
11.636297225952148,4.735395908355713,0.9643075466156006,6.241637229919434,0.5839699506759644,-0.0427593067288398,#
9.990034103393556,2.756531953811645,1.2969098091125488,5.2899370193481445,1.6786081790924072,-0.0794101431965828,#
10.195816040039062,1.7898313999176023,0.9906285405158995,4.589906215667725,1.766570210456848,-0.287098228931427,#
10.214959144592283,0.5144568681716919,1.4548362493515017,3.4439568519592285,1.626075267791748,-0.6157339811325073,#
10.214959144592283,0.5144568681716919,1.4548362493515017,2.021904230117798,1.650509238243103,-0.6352811455726624,#
10.286745071411133,-1.0839486122131348,0.9786643981933594,1.3011046648025513,1.7360278367996216,-0.5522059202194214,#
11.365907669067385,-1.4045867919921875,0.9619146585464478,-0.4776825606822967,1.738471269607544,-0.2541124522686004,#
11.815757751464844,-2.1056838035583496,1.246660590171814,-1.200925588607788,1.6211885213851929,-0.0794101431965828,#
10.53799057006836,-2.7349963188171387,1.368694543838501,-2.258913278579712,1.4428211450576782,0.3909422159194946,#
10.53799057006836,-2.7349963188171387,1.368694543838501,-2.924736499786377,1.3951750993728638,0.9969027042388916,#
8.889336585998535,-3.4241292476654053,1.215553879737854,-2.9845995903015137,1.3401988744735718,1.2595670223236084,#
7.884350299835205,-3.462414264678955,1.227518081665039,-2.6425251960754395,1.0799779891967771,1.6199668645858765,#
7.379465103149414,-2.940778970718384,1.1676974296569824,-1.9376075267791748,0.726908266544342,1.7922258377075195,#
7.345965385437012,-2.636890411376953,1.0600204467773438,-1.5246747732162476,0.5839699506759644,1.8019993305206297,#
7.345965385437012,-2.636890411376953,1.0600204467773438,-0.7110261917114258,0.3921639025211334,1.7030421495437622,#
7.735995292663574,-2.65842604637146,0.6508477926254272,-0.3713951408863067,0.3200839459896087,1.6114150285720823,#
7.850851535797119,-2.562713146209717,0.277567446231842,0.1185043603181839,0.2638860046863556,1.3780713081359863,#
7.814958095550537,-2.68953275680542,0.3230310678482055,0.4764608442783355,0.3200839459896087,1.109298586845398,#
8.039883613586426,-2.744567632675171,0.6029912829399109,0.6303943395614624,0.3616215586662292,0.9358179569244384,#
8.389235496520996,-2.589033842086792,1.361515998840332,0.84541255235672,0.3836120665073395,0.5851916074752808,#
8.389235496520996,-2.589033842086792,1.361515998840332,1.012784719467163,0.3640649616718292,0.2528907656669616,#
8.35573673248291,-2.287538528442383,1.9764715433120728,1.1276240348815918,0.3848337531089782,0.1075091138482093,#
8.078168869018555,-1.7635102272033691,2.177468776702881,1.3548591136932373,0.4752391576766968,-0.1038440242409706,#
8.023134231567383,-1.284945726394653,2.146361827850342,1.4415994882583618,0.4935645759105682,-0.199136197566986,#
8.025527954101562,-0.9643075466156006,2.043470621109009,1.433047652244568,0.4605787992477417,-0.2064663618803024,#
8.025527954101562,-0.9643075466156006,2.043470621109009,1.257123589515686,0.3408527672290802,-0.1930277347564697,#
7.968099594116211,-0.906879723072052,2.1822540760040283,1.1251806020736694,0.2858764827251434,-0.1795890927314758,#
8.279166221618652,-1.0887343883514404,2.392822742462158,0.813648521900177,0.1685938388109207,-0.1514901220798492,#
8.958727836608887,-1.2035897970199585,2.581855773925781,0.4776825606822967,-0.0268772784620523,-0.1588202863931656,#
9.432506561279297,-1.3495519161224363,2.68953275680542,0.3017585575580597,-0.1221694499254226,-0.1588202863931656,#
9.410971641540527,-1.5242280960083008,2.6847469806671143,-0.0390942245721817,-0.2492256760597229,-0.152711808681488,#
9.410971641540527,-1.5242280960083008,2.6847469806671143,-0.3286358118057251,-0.31641885638237,-0.155155211687088,#
9.63828945159912,-1.7874385118484497,2.4335007667541504,-0.4288147687911987,-0.3530696928501129,-0.1734806150197982,#
10.193424224853516,-2.0673987865448,2.514856576919556,-0.4764608442783355,-0.5436540246009827,-0.2687727808952331,#
10.480563163757324,-2.550748825073242,2.935993194580078,-0.4508052766323089,-0.6560499668121338,-0.3799469769001007,#
10.126425743103027,-2.900100946426392,3.225525140762329,-0.2858764827251434,-0.7159129977226257,-0.4141544103622436,#
10.126425743103027,-2.900100946426392,3.225525140762329,0.0097735561430454,-0.6511631608009338,-0.4642439186573028,#
9.34875774383545,-2.763710021972656,3.1800613403320312,0.1844758540391922,-0.6096255779266357,-0.4752391576766968,#
8.669197082519531,-2.47896409034729,3.091526985168457,0.5131116509437561,-0.522885262966156,-0.448361873626709,#
8.788837432861328,-2.3258235454559326,2.895315170288086,0.7598939538002014,-0.5008947253227234,-0.3836120665073395,#
9.31047248840332,-1.959721684455872,2.4191436767578125,0.8783983588218689,-0.5155550837516785,-0.3408527672290802,#
9.31047248840332,-1.959721684455872,2.4191436767578125,1.0469921827316284,-0.5143333673477173,-0.2382304221391677,#
9.98285675048828,-1.66301167011261,2.218146562576294,1.0653176307678225,-0.4813476204872131,-0.1368297785520553,#
10.315458297729492,-1.557727575302124,2.045863389968872,0.9761338829994202,-0.3775035738945007,-0.0830752253532409,#
10.44467067718506,-1.430907964706421,2.0123636722564697,0.7611156702041626,-0.2492256760597229,0.0122169442474842,#
10.248459815979004,-1.4165509939193726,2.2396819591522217,0.6426112651824951,-0.1869192570447921,0.0452026948332786,#
9.968499183654783,-1.6821542978286743,2.227717876434326,0.3921639025211334,-0.1050657257437706,0.1111741960048675,#
9.968499183654783,-1.6821542978286743,2.227717876434326,0.1502684205770492,-0.0390942245721817,0.2125748395919799,#
9.458827018737791,-1.8281164169311523,1.8999011516571045,0.069636583328247,0.0048867780715227,0.2761029601097107,#
9.38943576812744,-1.7324036359786987,1.6127625703811646,-0.0574196390807628,0.0500894747674465,0.3897205293178558,#
10.250852584838867,-1.8951154947280884,1.3950155973434448,-0.069636583328247,-0.0342074446380138,0.42270627617836,#
11.251051902770996,-1.919043779373169,1.093519926071167,-0.0439810007810592,-0.0965138673782348,0.3994940817356109,#
11.251051902770996,-1.919043779373169,1.093519926071167,-0.003665083553642,-0.175924003124237,0.3176405727863312,#
11.461621284484863,-1.9812570810317995,0.6221339106559753,-0.0085518611595034,-0.1466033309698104,0.2651077210903168,#
10.73180866241455,-2.029113531112671,0.5144568681716919,-0.0415376126766204,-0.1466033309698104,0.1490467190742492,#
9.970890998840332,-2.2085752487182617,0.7226324081420898,-0.0329857505857944,0.0916270837187767,0.0085518611595034,#
9.343972206115724,-2.3617160320281982,1.284945726394653,0.003665083553642,0.0842969194054603,-0.0610847249627113,#
8.767301559448242,-2.337787628173828,1.7180466651916504,0.0733016654849052,-0.0012216945178806,-0.1600419729948043,#
8.767301559448242,-2.337787628173828,1.7180466651916504,0.1795890927314758,-0.0305423624813556,-0.2015795856714248,#
8.12841796875,-2.342573404312134,1.8544375896453853,0.2516690790653229,-0.0378725305199623,-0.2089097648859024,#
7.695317268371582,-2.3736801147460938,1.703689694404602,0.4288147687911987,-0.1221694499254226,-0.2199050188064575,#
7.659425258636475,-2.321038007736206,1.5050854682922363,0.53143709897995,-0.1869192570447921,-0.2406738102436065,#
7.791030406951904,-2.2995026111602783,1.2179466485977173,0.7134696245193481,-0.2895416021347046,-0.2418954968452453,#
7.791030406951904,-2.2995026111602783,1.2179466485977173,0.7879929542541504,-0.3261924386024475,-0.2247917801141739,#
8.207381248474121,-2.1894328594207764,0.7728817462921143,0.7879929542541504,-0.3371876776218414,-0.2235700935125351,#
8.71944522857666,-1.797009825706482,0.3852444589138031,0.7110261917114258,-0.3286358118057251,-0.2370087206363678,#
9.145368576049805,-1.6989041566848757,0.0693918615579605,0.5424323678016663,-0.2443388998508453,-0.235787034034729,#
9.695716857910156,-1.8376877307891848,0.138783723115921,0.4214845895767212,-0.200357899069786,-0.2394521236419677,#
9.695716857910156,-1.8376877307891848,0.138783723115921,0.1466033309698104,-0.1514901220798492,-0.2626643180847168,#
10.147960662841797,-2.25403904914856,0.3732803165912628,-0.100178949534893,-0.1246128380298614,-0.2956500649452209,#
10.423135757446287,-2.4646072387695312,0.7417750358581543,-0.1844758540391922,-0.1038440242409706,-0.3017585575580597,#
10.526025772094728,-2.5746772289276123,1.105484127998352,-0.3115321099758148,-0.0378725305199623,-0.2895416021347046,#
10.317852020263672,-2.493321180343628,0.9188438653945924,-0.3469612300395965,0.0012216945178806,-0.2724378705024719,#
9.77707290649414,-2.287538528442383,0.6915256977081299,-0.3970507085323334,0.0659715011715889,-0.2028012871742248,#
9.77707290649414,-2.287538528442383,0.6915256977081299,-0.4776825606822967,0.1514901220798492,-0.0891837030649185,#
9.66221809387207,-2.242074966430664,0.7896314859390259,-0.5131116509437561,0.1575985848903656,-0.0342074446380138,#
9.975677490234377,-2.366501569747925,1.0049854516983032,-0.5302154421806335,0.0855186134576797,0.0610847249627113,#
9.93978500366211,-2.3473589420318604,1.1198409795761108,-0.499673068523407,0.0513111688196659,0.1514901220798492,#
9.803394317626951,-2.383251428604126,1.0791629552841189,-0.4764608442783355,0.0537545569241046,0.200357899069786,#
9.803394317626951,-2.383251428604126,1.0791629552841189,-0.4129327237606048,0.0806318372488021,0.2834331095218658,#
9.518648147583008,-2.3162522315979004,1.1581261157989502,-0.3689517080783844,0.0867403075098991,0.3042019307613373,#
9.394222259521484,-2.2061824798583984,1.0097711086273191,-0.282211422920227,0.0769667476415634,0.3298574984073639,#
9.54496955871582,-2.1583259105682373,1.0959126949310305,-0.2480039745569229,0.0574196390807628,0.3286358118057251,#
9.973284721374512,-2.2061824798583984,1.3950155973434448,-0.2382304221391677,0.0329857505857944,0.3151971697807312,#
9.772287368774414,-2.2133607864379883,1.8472589254379272,-0.1734806150197982,-0.0012216945178806,0.2785463333129883,#
9.772287368774414,-2.2133607864379883,1.8472589254379272,-0.0671931952238082,0.031764056533575,0.2431172132492065,#
9.236295700073242,-2.1439690589904785,1.797009825706482,-0.0146603342145681,0.0720799788832664,0.2370087206363678,#
8.84626579284668,-1.8783657550811768,1.4548362493515017,0.0268772784620523,0.1404948681592941,0.2467822879552841,#
9.099905014038086,-1.8209381103515625,1.179661512374878,-0.0024433890357613,0.1380514800548553,0.2528907656669616,#
9.72921657562256,-1.7850456237792969,1.1676974296569824,-0.0280989725142717,0.100178949534893,0.2431172132492065,#
9.72921657562256,-1.7850456237792969,1.1676974296569824,-0.0855186134576797,0.0329857505857944,0.1820324808359146,#
9.944571495056152,-1.8281164169311523,1.241874933242798,-0.1172826737165451,0.0427593067288398,0.1392731666564941,#
9.57607650756836,-1.758724570274353,1.3974084854125977,-0.1942494213581085,0.1343863904476165,0.0623064190149307,#
9.422935485839844,-1.8999011516571045,1.3543376922607422,-0.3213056325912475,0.2089097648859024,0.0024433890357613,#
9.554540634155272,-2.0195422172546387,1.3830513954162598,-0.3836120665073395,0.199136197566986,-0.0329857505857944,#
9.554540634155272,-2.0195422172546387,1.3830513954162598,-0.5057815313339233,0.1624853760004043,-0.0769667476415634,#
9.626325607299805,-2.0889341831207275,1.3830513954162598,-0.5632011890411377,0.1673721522092819,-0.0671931952238082,#
9.597611427307127,-2.244467735290528,1.5050854682922363,-0.5509842038154602,0.1661504507064819,-0.0549762547016143,#
9.626325607299805,-2.304288148880005,1.6127625703811646,-0.4740174412727356,0.1380514800548553,-0.031764056533575,#
9.757929801940918,-2.25403904914856,1.4715858697891235,-0.4202629029750824,0.1185043603181839,-0.0256555844098329,#
9.659825325012209,-2.084148406982422,1.3519448041915894,-0.2993151545524597,0.1099525094032287,-0.0329857505857944,#
9.659825325012209,-2.084148406982422,1.3519448041915894,-0.1856975704431533,0.1466033309698104,-0.0561979450285434,#
9.600004196166992,-1.921436548233032,1.4213367700576782,-0.1453816443681717,0.1649287492036819,-0.069636583328247,#
9.633503913879396,-1.7682960033416748,1.4165509939193726,-0.1343863904476165,0.1820324808359146,-0.100178949534893,#
9.336793899536133,-1.6917256116867063,1.66301167011261,-0.1771456897258758,0.2150182276964187,-0.1099525094032287,#
8.894121170043945,-1.7539390325546265,2.076970100402832,-0.2137965410947799,0.2467822879552841,-0.1026223376393318,#
8.894121170043945,-1.7539390325546265,2.076970100402832,-0.2699944972991943,0.2968717515468597,-0.0806318372488021,#
9.03290557861328,-1.8400806188583367,2.3712873458862305,-0.2687727808952331,0.2944283783435821,-0.0671931952238082,#
9.753145217895508,-1.8664016723632808,2.4358932971954346,-0.1637070626020431,0.2626643180847168,-0.0354291386902332,#
10.447062492370604,-1.8065810203552248,2.232503652572632,0.007330167107284,0.2577775418758392,-0.0024433890357613,#
10.669595718383787,-1.521835207939148,2.038684844970703,0.1172826737165451,0.2712161839008331,0.003665083553642,#
10.695917129516602,-1.277767300605774,2.155933380126953,0.42270627617836,0.3616215586662292,0.0146603342145681,#
10.695917129516602,-1.277767300605774,2.155933380126953,0.4532486498355865,0.3567348122596741,0.007330167107284,#
10.478169441223145,-0.973878800868988,2.402393817901612,0.4642439186573028,0.3274141252040863,-0.0134386392310261,#
10.396815299987791,-1.093519926071167,2.971885919570923,0.5534276366233826,0.2504473626613617,-0.0610847249627113,#
10.640881538391112,-0.8566305041313171,3.103491306304932,0.5815265774726868,0.21135313808918,-0.0879620015621185,#
9.798608779907228,-0.2871387302875519,2.8666017055511475,0.439810037612915,0.3005368411540985,-0.0830752253532409,#
9.798608779907228,-0.2871387302875519,2.8666017055511475,0.2504473626613617,0.3762818872928619,-0.0635281130671501,#
8.542377471923828,-0.1818545311689376,2.5866410732269287,-0.1905843466520309,0.4141544103622436,-0.0427593067288398,#
7.769494533538818,-0.4570291042327881,2.414358139038086,-0.5338804721832275,0.2968717515468597,-0.0549762547016143,#
7.953742504119873,-0.7441678047180176,2.5124638080596924,-0.6853706240653992,0.200357899069786,-0.0769667476415634,#
8.279166221618652,-0.9667003750801086,2.6967110633850098,-0.7953230738639832,0.0733016654849052,-0.1343863904476165,#
8.240880966186523,-1.284945726394653,3.1585259437561035,-0.6621583700180054,0.0525328628718853,-0.2345653474330902,#
8.240880966186523,-1.284945726394653,3.1585259437561035,-0.5277720093727112,0.0390942245721817,-0.2968717515468597,#
8.425127983093262,-1.5601203441619873,3.141776323318481,-0.3066453039646148,-0.0513111688196659,-0.4251496791839599,#
8.568697929382324,-1.7491532564163208,3.1728827953338623,-0.2235700935125351,-0.1050657257437706,-0.4825693070888519,#
8.568697929382324,-1.978864312171936,3.091526985168457,-0.1197260618209838,-0.1466033309698104,-0.5473191142082214,#
8.169095993041992,-1.5960125923156738,2.995814085006714,-0.0488677769899368,-0.1637070626020431,-0.5644228458404541,#
8.169095993041992,-1.5960125923156738,2.995814085006714,-0.0048867780715227,-0.1918060332536697,-0.5473191142082214,#
7.946564197540283,-1.4093725681304932,2.794816970825196,0.0476460866630077,-0.2785463333129883,-0.4361449182033539,#
7.987241268157959,-1.4835500717163086,2.541177749633789,0.1062874197959899,-0.3457395434379577,-0.3200839459896087,#
7.9728851318359375,-1.801795244216919,2.445464611053467,0.1661504507064819,-0.3738385140895843,-0.2773246467113495,#
8.236095428466797,-1.7443678379058838,2.445464611053467,0.2932066619396209,-0.4471401870250702,-0.2125748395919799,#
8.236095428466797,-1.7443678379058838,2.445464611053467,0.4349232316017151,-0.5131116509437561,-0.1979145109653473,#
8.685946464538574,-1.782652735710144,2.366501569747925,0.5008947253227234,-0.53143709897995,-0.199136197566986,#
9.042476654052734,-1.7156537771224976,2.4502503871917725,0.6230642199516296,-0.5436540246009827,-0.2052446752786636,#
9.44447135925293,-1.6199408769607544,2.57228422164917,0.6597149968147278,-0.5485408306121826,-0.2076880484819412,#
9.80817985534668,-1.4452648162841797,2.682354211807251,0.6707102656364441,-0.5399889945983887,-0.1979145109653473,#
10.442277908325195,-1.3639088869094849,2.65842604637146,0.5668662190437317,-0.5351021885871887,-0.1637070626020431,#
10.442277908325195,-1.3639088869094849,2.65842604637146,0.4837909936904907,-0.5558710098266602,-0.1441599577665329,#
11.286944389343262,-1.514656662940979,2.617748022079468,0.3286358118057251,-0.5167768001556396,-0.0891837030649185,#
11.062018394470217,-1.7850456237792969,2.5938196182250977,0.2247917801141739,-0.2602209150791168,0.0293206684291362,#
9.614361763000488,-1.6055840253829956,2.2947168350219727,0.1624853760004043,-0.1221694499254226,0.1050657257437706,#
8.669197082519531,-1.5026925802230835,1.9908283948898315,0.0012216945178806,-0.0256555844098329,0.2370087206363678,#
8.669197082519531,-1.5026925802230835,1.9908283948898315,-0.0891837030649185,-0.0549762547016143,0.2907632887363434,#
8.786444664001465,-1.782652735710144,1.9070796966552728,-0.1966928243637085,-0.1331647038459777,0.393385648727417,#
9.111868858337402,-1.9621145725250244,1.7898313999176023,-0.1356080919504165,-0.1099525094032287,0.4703523814678192,#
9.506684303283691,-2.057827472686768,1.8783657550811768,-0.0537545569241046,-0.100178949534893,0.4886777997016907,#
9.990034103393556,-2.043470621109009,1.8472589254379272,0.1075091138482093,-0.1062874197959899,0.4935645759105682,#
10.183852195739746,-1.969292998313904,1.4572290182113647,0.1637070626020431,-0.0781884491443634,0.4727957546710968,#
10.183852195739746,-1.969292998313904,1.4572290182113647,0.1588202863931656,-0.040315918624401,0.4556920528411865,#
10.05224895477295,-1.8257235288619995,1.1892328262329102,0.1478250324726104,-0.040315918624401,0.4385882914066314,#
9.944571495056152,-2.0123636722564697,1.1150553226470947,0.1600419729948043,-0.003665083553642,0.4471401870250702,#
9.827322006225586,-2.163111686706543,1.325623631477356,0.2174616158008575,-0.0097735561430454,0.448361873626709,#
9.533005714416504,-1.7204395532608032,1.155733346939087,0.3017585575580597,0.0280989725142717,0.5277720093727112,#
9.533005714416504,-1.7204395532608032,1.155733346939087,0.3005368411540985,0.0439810007810592,0.5815265774726868,#
9.18126106262207,-1.6031911373138428,0.7896314859390259,0.2284568697214126,0.0085518611595034,0.6633800864219666,#
9.504291534423828,-1.5912269353866575,0.4163511395454407,0.2321219593286514,-0.1099525094032287,0.6963658928871155,#
10.322636604309082,-1.8448662757873533,0.0191425811499357,0.2883199155330658,-0.1624853760004043,0.6780403852462769,#
11.15773105621338,-1.801795244216919,-0.1866401582956314,0.3787252902984619,-0.2260134816169738,0.5729747414588928,#
11.15773105621338,-1.801795244216919,-0.1866401582956314,0.4349232316017151,-0.2064663618803024,0.4935645759105682,#
11.243873596191406,-1.643869161605835,-0.1555334776639938,0.4972296357154846,-0.0867403075098991,0.3225273489952087,#
10.719844818115234,-1.6845470666885376,0.0047856452874839,0.4642439186573028,0.0207688063383102,0.175924003124237,#
9.985249519348145,-1.6342979669570925,0.2225324809551239,0.4141544103622436,0.0525328628718853,0.1185043603181839,#
9.379864692687988,-1.5553346872329712,0.2225324809551239,0.2174616158008575,0.0965138673782348,0.040315918624401,#
9.083154678344728,-1.4668002128601074,0.2656033039093017,-0.0280989725142717,0.0635281130671501,0.0476460866630077,#
9.083154678344728,-1.4668002128601074,0.2656033039093017,-0.1185043603181839,0.0439810007810592,0.0659715011715889,#
8.874979019165039,-1.514656662940979,0.2799602448940277,-0.2370087206363678,0.0219905003905296,0.1050657257437706,#
8.863015174865723,-1.4763716459274292,0.2847459018230438,-0.3457395434379577,-0.0244338884949684,0.128277912735939,#
9.20279598236084,-1.7012970447540283,0.397208571434021,-0.3762818872928619,-0.0427593067288398,0.1221694499254226,#
9.57607650756836,-1.8257235288619995,0.3134597539901733,-0.4007157981395721,-0.0513111688196659,0.0635281130671501,#
9.57607650756836,-1.8257235288619995,0.3134597539901733,-0.3799469769001007,-0.0207688063383102,0.0256555844098329,#
9.712467193603516,-1.7874385118484497,0.2967100143432617,-0.3567348122596741,0.0745233595371246,-0.0513111688196659,#
9.521041870117188,-1.7802598476409912,0.4498506784439087,-0.3506263196468353,0.1111741960048675,-0.1441599577665329,#
9.614361763000488,-1.710868239402771,0.6987042427062988,-0.3567348122596741,0.1026223376393318,-0.1918060332536697,#
9.851251602172852,-1.8089739084243768,0.8733802437782288,-0.3909422159194946,0.0916270837187767,-0.2797680497169494,#
9.76989459991455,-1.852044701576233,0.861416220664978,-0.4422534108161926,0.1148392781615257,-0.3371876776218414,#
9.76989459991455,-1.852044701576233,0.861416220664978,-0.4691306948661804,0.129499614238739,-0.3665083348751068,#
9.688538551330566,-1.969292998313904,0.9523434042930604,-0.499673068523407,0.1270562261343002,-0.4300364553928375,#
9.719645500183104,-2.029113531112671,0.94037926197052,-0.5070031881332397,0.128277912735939,-0.4569137394428253,#
9.635896682739258,-2.1990041732788086,0.8207381367683411,-0.4813476204872131,0.1661504507064819,-0.5033381581306458,#
9.521041870117188,-2.172683000564575,0.6699903011322021,-0.42270627617836,0.1747023165225982,-0.5522059202194214,#
9.521041870117188,-2.172683000564575,0.6699903011322021,-0.388498842716217,0.1514901220798492,-0.5766398310661316,#
9.667003631591797,-2.1990041732788086,0.8063812851905823,-0.3286358118057251,0.1160609796643257,-0.624285876750946,#
9.614361763000488,-2.3306093215942383,0.916451096534729,-0.2577775418758392,0.0928487852215766,-0.660936713218689,#
9.58325481414795,-2.431107759475708,1.2179466485977173,-0.1966928243637085,0.0623064190149307,-0.6829272508621216,#
9.430113792419434,-2.4358932971954346,1.289731502532959,-0.0745233595371246,0.007330167107284,-0.7171346545219421,#
9.430113792419434,-2.4358932971954346,1.289731502532959,0.0146603342145681,-0.0048867780715227,-0.7244647741317749,#
9.336793899536133,-2.416750907897949,1.423729419708252,0.0415376126766204,-0.0061084721237421,-0.7207997441291809,#
9.42054271697998,-2.390429735183716,1.361515998840332,0.0586413368582725,-0.0244338884949684,-0.6988092660903931,#
9.710074424743652,-2.249253273010254,1.3543376922607422,0.0561979450285434,-0.0232121963053941,-0.6817055344581604,#
10.114461898803713,-2.258824586868286,1.3016955852508545,0.0219905003905296,0.0048867780715227,-0.6352811455726624,#
10.415956497192385,-2.084148406982422,1.1676974296569824,-0.0342074446380138,0.0464243926107883,-0.5619794726371765,#
10.415956497192385,-2.084148406982422,1.1676974296569824,-0.0733016654849052,0.0904053896665573,-0.5070031881332397,#
10.15035343170166,-2.053041696548462,1.22033953666687,-0.1734806150197982,0.175924003124237,-0.3762818872928619,#
9.863215446472168,-2.045863389968872,1.179661512374878,-0.2687727808952331,0.199136197566986,-0.2345653474330902,#
9.76271629333496,-1.9812570810317995,1.3112668991088867,-0.2980934381484985,0.1979145109653473,-0.1600419729948043,#
9.81057357788086,-2.117647886276245,1.392622709274292,-0.3139754831790924,0.199136197566986,-0.0280989725142717,#
9.81057357788086,-2.117647886276245,1.392622709274292,-0.3115321099758148,0.2052446752786636,0.0378725305199623,#
9.765109062194824,-2.1128623485565186,1.6151552200317385,-0.2956500649452209,0.2382304221391677,0.1356080919504165,#
9.724431037902832,-1.998006820678711,1.761117458343506,-0.2638860046863556,0.258999228477478,0.2028012871742248,#
9.77946662902832,-1.9286150932312007,1.8424735069274905,-0.2492256760597229,0.2712161839008331,0.2309002727270126,#
9.920641899108888,-1.804188132286072,1.7874385118484497,-0.2089097648859024,0.2980934381484985,0.2748812437057495,#
9.92542839050293,-1.6223337650299072,1.8975083827972408,-0.1832541674375534,0.3616215586662292,0.3115321099758148,#
9.92542839050293,-1.6223337650299072,1.8975083827972408,-0.1722589135169983,0.3994940817356109,0.3286358118057251,#
9.556933403015137,-1.6175479888916016,2.050648927688598,-0.1490467190742492,0.4764608442783355,0.3628432750701904,#
9.32004451751709,-1.3399806022644043,1.8472589254379272,-0.1942494213581085,0.4960079491138458,0.4043808877468109,#
8.922836303710938,-1.0552347898483276,1.5314064025878906,-0.2541124522686004,0.5106682777404785,0.4324798583984375,#
8.46341323852539,-0.8590233325958252,1.5074783563613892,-0.416597843170166,0.5277720093727112,0.4801259338855743,#
8.46341323852539,-0.8590233325958252,1.5074783563613892,-0.4923428893089294,0.5008947253227234,0.4898994863033294,#
8.279166221618652,-0.906879723072052,1.529013752937317,-0.5595360994338989,0.3518480062484741,0.4911211729049682,#
8.549554824829102,-1.191625714302063,1.902293920516968,-0.494786262512207,0.1930277347564697,0.4495835602283478,#
8.874979019165039,-1.380658507347107,2.493321180343628,-0.4007157981395721,0.1343863904476165,0.4129327237606048,#
9.14297580718994,-1.4739787578582764,2.900100946426392,-0.1575985848903656,0.0048867780715227,0.3213056325912475,#
9.14297580718994,-1.4739787578582764,2.900100946426392,0.1612636744976043,-0.0977355539798736,0.2040229737758636,#
9.547362327575684,-1.6677974462509155,3.103491306304932,0.31641885638237,-0.1246128380298614,0.152711808681488,#
9.40379238128662,-1.4811571836471558,3.2542388439178467,0.6487197875976562,-0.1539334952831268,0.0684148892760276,#
9.434900283813477,-1.4045867919921875,3.1585259437561035,0.8283088207244873,-0.1637070626020431,0.0305423624813556,#
9.600004196166992,-1.294516921043396,3.0317063331604004,1.1447278261184692,-0.1856975704431533,-0.0280989725142717,#
9.695716857910156,-0.9284151792526244,2.964707374572754,1.3878449201583862,-0.1649287492036819,-0.0549762547016143,#
9.695716857910156,-0.9284151792526244,2.964707374572754,1.4672551155090332,-0.1368297785520553,-0.0659715011715889,#
9.7005033493042,-0.4833501875400543,2.778067111968994,1.461146593093872,-0.0879620015621185,-0.0830752253532409,#
9.602396965026855,-0.0885344371199607,2.4909284114837646,1.2791141271591189,-0.0513111688196659,-0.1026223376393318,#
9.614361763000488,0.0263210479170084,2.517249345779419,1.1532796621322632,-0.0390942245721817,-0.1172826737165451,#
9.595218658447266,0.1507478207349777,2.565105676651001,0.8759549260139465,-0.0293206684291362,-0.1514901220798492,#
9.595218658447266,0.1507478207349777,2.565105676651001,0.7232431173324585,-0.007330167107284,-0.1637070626020431,#
9.54496955871582,0.0957129001617431,2.763710021972656,0.416597843170166,0.0415376126766204,-0.1820324808359146,#
9.477970123291016,0.064606212079525,2.868994235992432,0.1380514800548553,0.0769667476415634,-0.2028012871742248,#
9.528220176696776,-0.1028913781046867,2.964707374572754,0.0232121963053941,0.0867403075098991,-0.21135313808918,#
9.681360244750977,-0.4689932465553283,3.0005996227264404,-0.130721315741539,0.0965138673782348,-0.235787034034729,#
9.58325481414795,-0.7034898400306702,2.9862425327301025,-0.1820324808359146,0.129499614238739,-0.261442631483078,#
9.58325481414795,-0.7034898400306702,2.9862425327301025,-0.1856975704431533,0.1490467190742492,-0.2724378705024719,#
9.631111145019531,-0.6891329884529114,3.046063184738159,-0.152711808681488,0.178367406129837,-0.2846547961235046,#
9.71485996246338,-0.6939185857772827,3.2757742404937744,-0.1062874197959899,0.2028012871742248,-0.2883199155330658,#
9.896714210510254,-0.6412764191627502,3.084348201751709,-0.0879620015621185,0.2150182276964187,-0.2858764827251434,#
9.951749801635742,-0.5144568681716919,2.981456995010376,-0.0671931952238082,0.2602209150791168,-0.2773246467113495,#
9.951749801635742,-0.5144568681716919,2.981456995010376,-0.0537545569241046,0.2919849753379822,-0.2712161839008331,#
9.774680137634276,-0.5479563474655151,3.170490026473999,-0.0268772784620523,0.3384093642234802,-0.2541124522686004,#
9.724431037902832,-0.5982056856155396,3.25663161277771,-0.0085518611595034,0.3555130958557129,-0.2443388998508453,#
9.702895164489746,-0.5647061467170715,3.235095977783203,0.0012216945178806,0.3640649616718292,-0.2345653474330902,#
9.66939640045166,-0.3756731450557709,3.218346357345581,0.0109952501952648,0.411711037158966,-0.2040229737758636,#
9.394222259521484,-0.1842473447322845,3.141776323318481,-0.0024433890357613,0.439810037612915,-0.1722589135169983,#
9.394222259521484,-0.1842473447322845,3.141776323318481,-0.0109952501952648,0.4446967840194702,-0.1575985848903656,#
9.300901412963867,-0.2679961323738098,3.2374887466430664,-0.0085518611595034,0.4312581717967987,-0.1258345395326614,#
9.274580955505373,-0.1962114423513412,3.426522016525269,0.0048867780715227,0.4214845895767212,-0.1123958900570869,#
9.07119083404541,-0.1363908797502517,3.3427734375,0.0232121963053941,0.4324798583984375,-0.0806318372488021,#
8.60459041595459,-0.3421736359596252,3.3427734375,0.0488677769899368,0.4508052766323089,-0.040315918624401,#
8.60459041595459,-0.3421736359596252,3.3427734375,0.0757450610399246,0.439810037612915,-0.0280989725142717,#
8.346165657043457,-0.3637090623378753,3.517449140548706,0.1356080919504165,0.3567348122596741,-0.0366508327424526,#
8.676375389099121,-0.229710966348648,3.515056610107422,0.129499614238739,0.2773246467113495,-0.0464243926107883,#
8.695517539978027,-0.1579262912273407,3.2039895057678223,0.0940704718232154,0.2907632887363434,-0.0390942245721817,#
8.135597229003906,0.0861416235566139,2.885744333267212,-0.0867403075098991,0.365286648273468,-0.007330167107284,#
8.135597229003906,0.0861416235566139,2.885744333267212,-0.200357899069786,0.3750602006912231,-0.0024433890357613,#
7.429713726043701,0.0765703245997428,2.6057839393615723,-0.4275930821895599,0.3005368411540985,0.0085518611595034,#
7.362715244293213,-0.2392822504043579,2.622533798217773,-0.5632011890411377,0.1429382413625717,0.003665083553642,#
7.482356548309326,-0.4570291042327881,2.885744333267212,-0.5925218462944031,0.0659715011715889,-0.003665083553642,#
7.802994728088379,-0.818345308303833,3.304487943649292,-0.577861487865448,-0.0598630309104919,-0.0097735561430454,#
7.831708431243896,-1.4763716459274292,3.6921253204345694,-0.4740174412727356,-0.1209477484226226,-0.0158820282667875,#
7.831708431243896,-1.4763716459274292,3.6921253204345694,-0.4068242609500885,-0.1392731666564941,-0.0354291386902332,#
7.838886737823486,-1.6677974462509155,3.799802303314209,-0.2932066619396209,-0.1612636744976043,-0.0708582773804664,#
7.635497093200684,-1.5864413976669312,3.6634113788604736,-0.2296785563230514,-0.2137965410947799,-0.1087308079004287,#
7.743173599243164,-1.4404792785644531,3.38823676109314,-0.2211267054080963,-0.2467822879552841,-0.1160609796643257,#
7.592426776885986,-1.3184452056884766,3.041277408599853,-0.2370087206363678,-0.2895416021347046,-0.0928487852215766,#
7.592426776885986,-1.3184452056884766,3.041277408599853,-0.2761029601097107,-0.3225273489952087,-0.0818535313010215,#
7.661818027496338,-1.1940184831619265,2.914458036422729,-0.3567348122596741,-0.4190412163734436,-0.0671931952238082,#
7.901099681854248,-1.3304094076156616,3.060420036315918,-0.445918470621109,-0.5155550837516785,-0.0452026948332786,#
8.183453559875488,-1.5074783563613892,3.13220477104187,-0.4727957546710968,-0.549762487411499,-0.0366508327424526,#
8.262415885925293,-1.7635102272033691,3.1968109607696533,-0.4654656052589416,-0.5937435030937195,-0.0134386392310261,#
8.693124771118164,-1.6797614097595217,3.1058835983276367,-0.3506263196468353,-0.6352811455726624,-0.0183254163712263,#
8.693124771118164,-1.6797614097595217,3.1058835983276367,-0.261442631483078,-0.6560499668121338,-0.0256555844098329,#
9.040083885192873,-1.442872166633606,3.0101709365844727,-0.1343863904476165,-0.6450546979904175,0.0061084721237421,#
9.05683422088623,-1.4380863904953003,3.115455150604248,-0.0855186134576797,-0.6022953391075134,0.0647498071193695,#
9.336793899536133,-1.5170495510101318,3.290131092071533,-0.0733016654849052,-0.6096255779266357,0.0928487852215766,#
9.571290969848633,-1.2658032178878784,3.426522016525269,-0.0916270837187767,-0.6267292499542236,0.1478250324726104,#
9.571290969848633,-1.2658032178878784,3.426522016525269,-0.1123958900570869,-0.6181774139404297,0.178367406129837,#
9.743573188781738,-1.3304094076156616,3.6299118995666495,-0.1160609796643257,-0.5974085927009583,0.2150182276964187,#
10.16710376739502,-1.4189438819885254,3.696911096572876,-0.0183254163712263,-0.6084038615226746,0.2296785563230514,#
10.932806968688965,-1.4524433612823486,3.555734634399414,0.0537545569241046,-0.6157339811325073,0.2260134816169738,#
11.538190841674805,-1.3375877141952517,3.5365920066833496,0.1893626451492309,-0.6108472347259521,0.2064663618803024,#
11.538190841674805,-1.3375877141952517,3.5365920066833496,0.2418954968452453,-0.5155550837516785,0.1954711079597473,#
11.523834228515623,-1.2921242713928225,3.4743783473968506,0.2968717515468597,-0.4495835602283478,0.1966928243637085,#
11.076375007629396,-1.210768222808838,3.383451223373413,0.3042019307613373,-0.3213056325912475,0.2247917801141739,#
10.23888874053955,-1.2227323055267334,3.146562099456787,0.310310423374176,-0.2748812437057495,0.2467822879552841,#
9.659825325012209,-1.2011969089508057,2.8809585571289062,0.3494046330451965,-0.2272351831197738,0.2883199155330658,#
9.580862045288086,-1.3375877141952517,3.041277408599853,0.4972296357154846,-0.2370087206363678,0.3054236173629761,#
9.580862045288086,-1.3375877141952517,3.041277408599853,0.6230642199516296,-0.258999228477478,0.3005368411540985,#
9.827322006225586,-1.3591231107711792,3.041277408599853,0.8307521939277649,-0.261442631483078,0.3115321099758148,#
9.523433685302734,-0.9619146585464478,2.778067111968994,0.9077189564704896,-0.155155211687088,0.342074453830719,#
9.355937004089355,-0.82791668176651,2.4981069564819336,0.926044464111328,-0.1404948681592941,0.3371876776218414,#
9.401400566101074,-0.6197410225868225,2.2779672145843506,0.896723747253418,-0.130721315741539,0.3213056325912475,#
9.401400566101074,-0.6197410225868225,2.2779672145843506,0.8380824327468872,-0.1221694499254226,0.3127537965774536,#
9.597611427307127,-0.7274181246757507,2.148754596710205,0.6890356540679932,-0.0757450610399246,0.3017585575580597,#
9.69332504272461,-0.851844847202301,2.122433662414551,0.4984513521194458,-0.0513111688196659,0.2773246467113495,#
10.095318794250488,-0.916451096534729,2.3090739250183105,0.4312581717967987,-0.0574196390807628,0.2333436459302902,#
10.549955368041992,-1.3280165195465088,2.6560330390930176,0.3872771561145782,-0.0439810007810592,0.1246128380298614,#
10.892127990722656,-1.3519448041915894,2.8594231605529785,0.4043808877468109,0.0867403075098991,0.0183254163712263,#
10.892127990722656,-1.3519448041915894,2.8594231605529785,0.3665083348751068,0.1661504507064819,-0.0109952501952648,#
10.963912963867188,-1.3423734903335571,2.967100143432617,0.1649287492036819,0.3408527672290802,-0.0305423624813556,#
11.026127815246582,-1.7156537771224976,3.168097257614136,-0.1172826737165451,0.6096255779266357,-0.0488677769899368,#
10.983055114746094,-1.6821542978286743,3.548555850982666,-0.2137965410947799,0.7379034161567688,-0.0452026948332786,#
11.085947036743164,-1.7922240495681765,3.4193434715271,-0.5131116509437561,0.9785772562026978,0.0280989725142717,#
11.085947036743164,-1.7922240495681765,3.4193434715271,-0.6633800864219666,1.0787562131881714,0.0794101431965828,#
11.44965648651123,-1.7443678379058838,3.811766624450684,-1.0274450778961182,1.3304253816604614,0.2137965410947799,#
11.832507133483888,-1.3471590280532837,4.701896190643311,-1.627297043800354,1.7103723287582395,0.439810037612915,#
12.306286811828612,-2.1200408935546875,5.465207099914551,-2.03412127494812,1.8887397050857544,0.5851916074752808,#
12.607781410217283,-2.167897224426269,5.199604034423828,-2.9149630069732666,2.3627572059631348,0.911384105682373,#
12.607781410217283,-2.167897224426269,5.199604034423828,-3.373098611831665,2.8966376781463623,1.313321590423584,#
12.416357040405272,-2.569891452789306,4.460221290588379,-4.377331256866455,3.104325532913208,1.525896430015564,#
12.373285293579102,-3.5509488582611084,4.35972261428833,-5.275277137756348,3.448843479156494,2.017017602920532,#
12.397214889526367,-5.637490272521973,4.070191383361816,-5.537940979003906,3.630875825881958,2.2894556522369385,#
11.509476661682127,-8.520841598510742,3.1345977783203125,-5.629568099975586,4.037700176239014,2.90396785736084,#
9.53779125213623,-9.856036186218262,2.4047868251800537,-5.347356796264648,4.3467888832092285,3.397532224655152,#
9.53779125213623,-9.856036186218262,2.4047868251800537,-5.203197002410889,4.317468166351318,3.5160367488861084,#
7.618747234344482,-9.432506561279297,2.476571559906006,-4.665650844573975,3.981502294540405,3.589338541030884,#
5.936593055725098,-9.44447135925293,1.813759446144104,-3.980280637741089,3.563682794570923,3.720059633255005,#
5.460421085357666,-8.61176872253418,2.945564746856689,-3.567347764968872,3.3144571781158447,3.728611469268799,#
4.847858428955078,-7.77906608581543,1.902293920516968,-2.4629359245300293,2.9809346199035645,3.5343620777130127,#
4.847858428955078,-7.77906608581543,1.902293920516968,-2.0121307373046875,2.81234073638916,3.4317398071289062,#
4.161118507385254,-6.331408977508545,-0.5910272002220154,-1.408613681793213,2.334658145904541,3.158080101013184,#
3.232703685760498,-5.458028793334961,-2.861815929412842,-1.119072198867798,1.8643057346344,2.824557542800904,#
2.230110645294189,-5.084747791290283,-4.706681728363037,-0.9883508682250975,1.6089717149734497,2.629086494445801,#
2.057827472686768,-5.185246467590332,-5.010570526123047,-0.7806627750396729,1.1276240348815918,2.20760178565979,#
2.5914268493652344,-5.630311965942383,-4.25922441482544,-0.6401678919792175,0.7012526392936707,1.808107852935791,#
2.5914268493652344,-5.630311965942383,-4.25922441482544,-0.6499415040016174,0.5045598149299622,1.6334055662155151,#
2.857030153274536,-5.781059265136719,-4.323830604553223,-0.6316159963607788,0.2235700935125351,1.3340904712677002,#
2.560320377349853,-5.907878875732422,-4.8502516746521,-0.8588511943817139,-0.0891837030649185,1.0714260339736938,#
2.4574286937713623,-6.3529438972473145,-6.010770320892334,-1.0176715850830078,-0.2309002727270126,0.9382613897323608,#
2.335394859313965,-6.527620315551758,-6.690331935882568,-1.5979763269424438,-0.5094466209411621,0.7036960124969482,#
2.335394859313965,-6.527620315551758,-6.690331935882568,-1.8239898681640625,-0.6768187284469604,0.5766398310661316,#
2.234896183013916,-7.944170951843262,-7.802994728088379,-2.277238368988037,-1.1019684076309204,0.4068242609500885,#
2.1032910346984863,-8.98265552520752,-10.526025772094728,-2.65229868888855,-1.7763437032699585,0.1869192570447921,#
3.0484561920166016,-10.808380126953123,-12.468998908996582,-2.7561426162719727,-2.2234840393066406,0.0769667476415634,#
6.187839508056641,-12.78485107421875,-11.274980545043944,-3.037132501602173,-3.2997968196868896,-0.1637070626020431,#
6.187839508056641,-12.78485107421875,-11.274980545043944,-3.7420501708984375,-4.721848964691162,-0.4593571126461029,#
8.346165657043457,-13.990833282470703,-9.169296264648438,-4.252718448638916,-5.589252471923828,-0.5937435030937195,#
10.11924648284912,-13.902298927307127,-5.498706817626953,-4.7743821144104,-7.350935935974121,-1.1105202436447144,#
10.28195858001709,-13.605589866638184,-1.3974084854125977,-4.7951507568359375,-7.987438678741455,-1.452594757080078,#
9.4061861038208,-11.306086540222168,1.0121639966964722,-5.056593418121338,-8.526206016540527,-2.0988712310791016,left
6.515655517578125,-11.710474014282228,-2.562713146209717,-4.707188606262207,-8.301413536071777,-2.9442837238311768,left
6.515655517578125,-11.710474014282228,-2.562713146209717,-3.757932424545288,-8.141372680664062,-3.248485803604126,left
4.599005222320557,-16.560726165771484,-11.373086929321287,-2.0096874237060547,-8.439465522766113,-3.023693799972534,left
7.223931312561035,-17.068004608154297,-12.935599327087402,0.1197260618209838,-9.064973831176758,-2.2149322032928467,left
10.95912742614746,-15.270994186401367,-11.471190452575684,0.9688037633895874,-9.4058256149292,-1.8655275106430047,left
13.634303092956545,-15.59402561187744,-2.854637384414673,2.025569438934326,-8.489554405212402,-0.7036960124969482,left
13.634303092956545,-15.59402561187744,-2.854637384414673,2.18438982963562,-7.484100341796875,-0.4068242609500885,left
11.617154121398926,-13.92862033843994,2.6847469806671143,2.180724620819092,-6.128019332885742,-0.1722589135169983,left
9.841679573059082,-11.44965648651123,4.510470867156982,1.8924047946929927,-5.336361885070801,0.1771456897258758,left
9.619147300720217,-9.19561767578125,5.036891937255859,1.6334055662155151,-4.944197654724121,0.3286358118057251,left
8.149953842163086,-8.49691390991211,6.867401123046875,1.2143642902374268,-3.900870323181152,0.4740174412727356,left
6.072984218597412,-7.570890426635742,7.178467750549316,0.9590301513671876,-2.7060532569885254,0.282211422920227,left
6.072984218597412,-7.570890426635742,7.178467750549316,0.7452336549758911,-2.241809368133545,0.2504473626613617,left
3.538984537124634,-8.188239097595215,7.554140567779541,0.7525637745857239,-1.4489295482635498,0.2553341388702392,left
1.8161523342132568,-8.33898639678955,5.860023021697998,0.790436327457428,-0.8722898364067078,0.3494046330451965,left
0.9978070855140686,-8.219346046447754,3.814159393310547,0.7134696245193481,-0.6927007436752319,0.2712161839008331,left
0.397208571434021,-7.915457248687744,2.4335007667541504,0.5155550837516785,-0.3677300214767456,0.1490467190742492,left
0.397208571434021,-7.915457248687744,2.4335007667541504,0.4239279925823211,-0.1795890927314758,0.130721315741539,left
-0.1411765366792678,-6.984649658203125,1.244267821311951,0.2235700935125351,0.1563768982887268,0.0586413368582725,left
-0.413958340883255,-6.546762466430664,0.3948157429695129,0.0549762547016143,0.3750602006912231,-0.069636583328247,left
-0.0765703245997428,-6.262016773223877,0.0741775035858154,0.031764056533575,0.4361449182033539,-0.1331647038459777,left
0.4546363055706024,-6.111269474029541,-0.2440679222345352,0.2028012871742248,0.554649293422699,-0.3872771561145782,left
0.4546363055706024,-6.111269474029541,-0.2440679222345352,0.680483877658844,0.7036960124969482,-0.7232431173324585,left
1.0121639966964722,-6.4079790115356445,-0.4522434771060943,0.8710681796073914,0.8246437907218933,-0.8722898364067078,#
1.3710873126983645,-5.312066078186035,-0.2823530733585357,1.142284274101257,1.2168077230453491,-1.2644537687301636,#
1.1198409795761108,-4.768895626068115,-0.0957129001617431,1.3573025465011597,1.401283621788025,-1.4977973699569702,#
0.8350951075553894,-4.59421968460083,0.6891329884529114,1.766570210456848,1.58942449092865,-1.955932855606079,#
1.239482045173645,-4.106083393096924,0.5766702890396118,1.7897825241088867,1.7409145832061768,-2.440945625305176,#
1.239482045173645,-4.106083393096924,0.5766702890396118,1.586981177330017,1.7873390913009644,-2.664515733718872,#
1.998006820678711,-4.864608287811279,0.6197410225868225,1.3182083368301392,1.7739003896713257,-3.064009666442871,#
2.9790639877319336,-6.745367050170898,1.1485549211502075,1.1984822750091553,1.7922258377075195,-3.51237154006958,#
3.553341627120972,-6.908078193664551,1.8065810203552248,1.189930438995361,1.8801878690719604,-3.7823660373687744,#
3.641876220703125,-5.804987907409668,1.275374412536621,1.4110571146011353,2.070772171020508,-4.2771525382995605,#
3.641876220703125,-5.804987907409668,1.275374412536621,1.3780713081359863,2.0793240070343018,-4.443302631378174,#
3.876372575759888,-5.551348686218262,1.1006983518600464,1.2693406343460083,1.804442763328552,-4.7743821144104,#
5.137389659881592,-7.527820110321045,1.2299107313156128,1.2925527095794678,1.4440428018569946,-5.002838611602783,#
7.161717891693115,-12.507284164428713,0.97148597240448,1.6346272230148315,1.2632319927215576,-5.006504058837891,#
8.559126853942871,-9.891928672790527,1.215553879737854,0.8124268054962158,1.0091196298599243,-5.12134313583374,#
7.965706348419189,-6.903293132781982,0.1100698411464691,0.3567348122596741,1.0176715850830078,-5.492738246917725,#
7.965706348419189,-6.903293132781982,0.1100698411464691,-0.1722589135169983,0.84541255235672,-5.497625350952148,#
8.34855842590332,-5.927021503448486,-0.4761717021465301,-1.1264023780822754,0.3176405727863312,-5.2899370193481445,#
11.059626579284668,-7.786244869232178,0.1196411252021789,-1.8508671522140503,-0.1612636744976043,-5.133560657501221,#
14.682358741760254,-11.04766082763672,1.1676974296569824,-2.0377864837646484,-0.261442631483078,-4.997951984405518,#
17.331214904785156,-11.040483474731444,1.6677974462509155,-2.4922568798065186,-0.1246128380298614,-4.719405651092529,#
17.331214904785156,-11.040483474731444,1.6677974462509155,-2.4885916709899902,0.2272351831197738,-4.671759605407715,#
16.165908813476562,-9.631111145019531,1.8664016723632808,-2.36153531074524,1.0714260339736938,-4.405430316925049,#
14.222938537597656,-8.063812255859375,1.5074783563613892,-2.546011447906494,1.2387982606887815,-3.847115993499756,#
13.96929931640625,-6.314659118652344,2.8115665912628174,-2.6510770320892334,1.1716049909591677,-3.578343152999878,#
14.009976387023926,-6.604190349578857,2.462214469909668,-2.7781333923339844,1.2998830080032349,-3.0273590087890625,#
13.445270538330078,-7.759923934936523,3.1728827953338623,-3.1861791610717773,1.539335012435913,-2.3908562660217285,#
13.445270538330078,-7.759923934936523,3.1728827953338623,-3.2765846252441406,1.6297403573989868,-2.065885305404663,#
12.770493507385254,-9.020941734313965,2.861815929412842,-3.572234869003296,1.7739003896713257,-1.414722204208374,#
12.320643424987791,-8.33898639678955,5.113461971282959,-3.584451675415039,1.852088928222656,-1.148392915725708,#
11.60519027709961,-7.999206066131592,3.9840497970581055,-3.3547730445861816,2.144073724746704,-0.660936713218689,#
11.033305168151855,-8.011170387268066,3.464807271957397,-3.476942539215088,2.300450563430786,-0.0329857505857944,#
11.033305168151855,-8.011170387268066,3.464807271957397,-3.4476218223571777,2.300450563430786,0.2162399291992187,#
11.258230209350586,-9.3128662109375,5.699703216552734,-3.184957504272461,2.414068460464477,0.6878139972686768,#
11.576476097106934,-9.42772102355957,3.397808313369751,-3.2448205947875977,2.6144261360168457,1.2778924703598022,#
11.334800720214844,-9.078369140625,0.8997013568878174,-3.182514190673828,2.748812675476074,1.5539953708648682,#
10.274779319763184,-9.028119087219238,0.4043869972229004,-3.051792860031128,2.9845995903015137,2.195384979248047,#
10.274779319763184,-9.028119087219238,0.4043869972229004,-2.8599867820739746,2.7646946907043457,2.837996244430542,#
9.456435203552246,-10.935199737548828,0.9092726111412048,-2.839218139648437,2.759807825088501,3.167853593826294,#
9.497113227844238,-11.68175983428955,1.5481561422348022,-2.86487340927124,3.013920307159424,3.624767541885376,#
8.204988479614258,-11.980863571166992,2.0745770931243896,-2.637638568878174,3.084778547286988,3.775036096572876,#
6.747759819030762,-11.370694160461426,1.3232309818267822,-1.5564388036727903,3.055458068847656,3.903313875198364,#
5.362315654754639,-9.856036186218262,2.203789472579956,-0.4153760969638824,3.088443756103516,3.849559545516968,#
5.362315654754639,-9.856036186218262,2.203789472579956,0.0965138673782348,3.098217248916626,3.738384962081909,#
4.180261135101318,-8.207381248474121,3.38823676109314,0.6755970120429993,3.147085189819336,3.4231879711151123,#
3.1202406883239746,-6.242874622344971,3.1441688537597656,0.73912513256073,3.073783159255981,3.13608980178833,#
2.079362869262696,-3.428915023803711,3.689732551574707,0.471574068069458,2.9809346199035645,2.9980382919311523,#
1.442872166633606,-3.2279179096221924,2.1343977451324463,-0.0232121963053941,2.695058107376098,2.698723077774048,#
1.442872166633606,-3.2279179096221924,2.1343977451324463,-0.2199050188064575,2.4922568798065186,2.552119731903076,#
1.4069796800613403,-5.242674350738525,0.0622133873403072,-0.2773246467113495,1.9693715572357176,2.0732154846191406,#
1.4572290182113647,-6.97986364364624,-0.6508477926254272,-0.2260134816169738,1.4574815034866333,1.6089717149734497,#
2.021935224533081,-6.422336101531982,-1.3543376922607422,-0.2919849753379822,1.187487006187439,1.4574815034866333,#
1.852044701576233,-5.879165172576904,-3.5365920066833496,-0.624285876750946,0.7403469085693359,1.119072198867798,#
1.3878371715545654,-5.955735206604004,-4.393222332000732,-1.1264023780822754,0.3445178270339966,0.9675819873809814,#
1.3878371715545654,-5.955735206604004,-4.393222332000732,-1.321873426437378,0.130721315741539,0.8893935680389404,#
1.8927226066589355,-6.912864685058594,-4.156332969665527,-1.72991943359375,-0.2651077210903168,0.7488986849784851,#
2.9623143672943115,-9.556933403015137,-4.34536600112915,-1.847202181816101,-0.3530696928501129,0.707361102104187,#
3.153740167617798,-10.999805450439451,-5.044069766998291,-2.062220335006714,-0.5974085927009583,0.6572716236114502,#
2.847458839416504,-10.188638687133787,-5.927021503448486,-2.212488889694214,-0.9162708520889282,0.546097457408905,#
2.847458839416504,-10.188638687133787,-5.927021503448486,-2.266243457794189,-1.1056334972381592,0.5094466209411621,#
3.06999135017395,-10.277173042297363,-6.216552734375,-2.5240206718444824,-1.571099042892456,0.4544703662395477,#
3.8979082107543945,-11.58843994140625,-5.635097503662109,-2.780576705932617,-2.068328857421875,0.4813476204872131,#
4.749752521514893,-12.873385429382324,-5.958127975463867,-2.8514349460601807,-2.381082773208618,0.4984513521194458,#
6.08016300201416,-13.505090713500977,-6.484549045562744,-2.789128541946411,-3.150750160217285,0.4495835602283478,#
6.08016300201416,-13.505090713500977,-6.484549045562744,-2.947948932647705,-4.307694911956787,0.4605787992477417,left
7.984848976135254,-13.536197662353516,-5.620740413665772,-3.159301996231079,-5.01627779006958,0.4410317242145538,left
9.796216011047363,-14.744573593139648,-5.280959606170654,-3.6430931091308594,-6.561720848083496,0.393385648727417,left
11.617154121398926,-14.45743465423584,-3.747160196304321,-3.886210203170776,-7.347270965576172,0.3542913794517517,left
11.89472198486328,-13.454841613769531,-1.3663017749786377,-3.8801016807556152,-8.685026168823242,-0.069636583328247,left
11.392227172851562,-11.96172046661377,4.543970108032227,-3.711507797241211,-9.400938987731934,-0.6731536388397217,left
11.392227172851562,-11.96172046661377,4.543970108032227,-3.508706331253052,-9.48034954071045,-1.021336555480957,left
9.159724235534668,-13.153346061706545,8.841480255126953,-2.75003433227539,-8.753440856933594,-1.4489295482635498,left
3.206382274627685,-16.21137237548828,0.9906285405158995,-1.3658545017242432,-7.453557968139648,-1.241241693496704,left
-0.8039883971214294,-18.831514358520508,-7.460821151733398,-0.4862344264984131,-7.250756740570068,-0.9419264793395996,left
5.994020462036133,-16.9722900390625,-11.980863571166992,1.0702043771743774,-9.006331443786621,0.5937435030937195,left
5.994020462036133,-16.9722900390625,-11.980863571166992,1.2852225303649902,-9.772334098815918,1.6883817911148071,left
15.345170974731444,-9.198010444641112,-5.125426292419434,1.6993770599365234,-7.702783584594727,1.0250016450881958,left
12.610175132751465,-3.046063184738159,1.5601203441619873,0.2382304221391677,-5.321701526641846,0.5509842038154602,left
9.131011009216309,-4.101297855377197,3.780659914016724,-0.6646018028259277,-4.76827335357666,0.52655029296875,left
9.418149948120115,-6.671189785003662,4.965107440948486,-1.9388291835784912,-4.18919038772583,0.0476460866630077,left
8.724230766296387,-8.382057189941406,6.556333541870117,-2.020682573318481,-3.3486645221710205,-0.1954711079597473,left
8.724230766296387,-8.382057189941406,6.556333541870117,-1.761683464050293,-2.7036099433898926,-0.3249707520008087,left
6.455835819244385,-10.336994171142578,7.783851623535156,-1.5087926387786863,-1.435490965843201,-0.7537854909896851,left
3.0101709365844727,-12.04068374633789,8.623733520507812,-1.266897201538086,-0.7415685653686523,-0.6633800864219666,left
1.3208380937576294,-13.220344543457031,8.051848411560059,-0.2541124522686004,-0.5815265774726868,-0.445918470621109,left
1.0241280794143677,-12.026326179504396,4.321437358856201,0.4898994863033294,-0.2370087206363678,-0.4935645759105682,left
1.0241280794143677,-12.026326179504396,4.321437358856201,0.5399889945983887,-0.0879620015621185,-0.4764608442783355,left
0.9188438653945924,-10.52841854095459,2.091326951980591,0.6267292499542236,0.2993151545524597,-0.2785463333129883,left
0.2177468687295913,-8.769694328308105,0.0215354058891534,0.2724378705024719,0.7183563709259033,-0.3787252902984619,left
-0.5790630578994751,-8.300702095031738,-0.9571290016174316,0.031764056533575,0.8002098798751831,-0.4251496791839599,left
-0.4426721632480621,-8.812766075134277,-0.935593605041504,-0.258999228477478,0.8222004175186157,-0.3848337531089782,left
-0.4426721632480621,-8.812766075134277,-0.935593605041504,-0.2834331095218658,0.9492565989494324,-0.3200839459896087,left
0.057427741587162,-8.803194999694824,-0.787238597869873,-0.2455605864524841,1.0592091083526611,-0.3396310806274414,#
0.028713870793581,-7.587640762329102,-1.3112668991088867,-0.1649287492036819,1.3340904712677002,-0.4019374847412109,#
0.1938186287879943,-6.606583118438721,-1.8185452222824097,-0.1698155403137207,1.4208307266235352,-0.4569137394428253,#
0.7226324081420898,-6.582655429840088,-1.7922240495681765,-0.1808107793331146,1.4819154739379885,-0.6377245187759399,#
1.3830513954162598,-7.350750923156738,-1.4548362493515017,-0.0329857505857944,1.5527737140655518,-0.8490777015686035,#
1.3830513954162598,-7.350750923156738,-1.4548362493515017,0.1673721522092819,1.6199668645858765,-0.9724688529968262,#
2.053041696548462,-8.164310455322266,-0.8350951075553894,0.8112051486968994,1.8056644201278689,-1.273005723953247,#
2.4430718421936035,-7.8795647621154785,-0.3637090623378753,1.353637456893921,2.2027151584625244,-1.6639479398727417,#
2.2923240661621094,-5.61116886138916,-0.0693918615579605,1.5246747732162476,2.4177334308624268,-1.8924047946929927,#
2.3090739250183105,-4.189832210540772,0.1339980661869049,1.6847167015075684,2.6425251960754395,-2.372530698776245,#
2.3090739250183105,-4.189832210540772,0.1339980661869049,1.605306625366211,2.638859987258911,-2.829444408416748,#
2.943171739578247,-3.6323046684265137,0.1627119481563568,1.429382562637329,2.563115119934082,-3.081113338470459,#
3.783052444458008,-3.8500516414642334,0.3637090623378753,1.4391560554504397,2.470266103744507,-3.678522109985352,#
4.776073932647705,-4.012763977050781,0.4354937374591827,1.4183871746063232,2.4494974613189697,-3.983945846557617,#
5.814558982849121,-5.386244297027588,0.5934200286865234,1.6309621334075928,2.3713088035583496,-4.478732109069824,#
7.635497093200684,-7.57806921005249,0.7393822073936462,1.593089580535889,2.0988712310791016,-4.8232502937316895,#
7.635497093200684,-7.57806921005249,0.7393822073936462,0.9419264793395996,2.0377864837646484,-4.966187953948975,#
9.29611587524414,-6.508477687835693,0.760917603969574,-0.1343863904476165,2.0927627086639404,-5.326588153839111,#
10.69113063812256,-7.592426776885986,0.4522434771060943,-0.9736905097961426,2.030456304550171,-5.468304634094238,#
12.617353439331056,-8.506484031677246,1.6247265338897705,-1.288887619972229,1.964484691619873,-5.465860843658447,#
15.211173057556152,-10.028319358825684,2.9479575157165527,-1.1068552732467651,1.7604618072509766,-5.489073276519775,#
15.211173057556152,-10.028319358825684,2.9479575157165527,-0.7721109390258789,1.659061074256897,-5.470747947692871,#
17.45564079284668,-11.423335075378418,4.089334011077881,-0.8845068216323853,1.815437912940979,-5.186092853546143,#
17.039289474487305,-7.690531730651855,4.35254430770874,-2.080545663833618,2.4775965213775635,-4.596014499664307,#
15.158531188964844,-5.395814895629883,2.943171739578247,-2.685284376144409,2.586327314376831,-4.328463554382324,#
14.060226440429688,-6.302694320678711,2.4574286937713623,-4.416425704956055,2.22714900970459,-3.6553099155426025,#
14.060226440429688,-6.302694320678711,2.4574286937713623,-5.476856231689453,2.1856114864349365,-2.754921197891236,#
14.31147289276123,-10.808380126953123,3.2781667709350586,-5.875128746032715,2.349318504333496,-2.252804756164551,#
14.029119491577148,-13.2777738571167,4.01754903793335,-6.506744861602783,2.8734254837036133,-1.313321590423584,#
12.392428398132324,-12.595817565917969,3.160918712615967,-6.624027729034424,3.121429443359375,-0.8893935680389404,#
11.471190452575684,-12.29671573638916,3.1800613403320312,-6.3576979637146,3.249707221984864,-0.0048867780715227,#
11.43529987335205,-11.992826461791992,1.9908283948898315,-5.828704357147217,3.23749041557312,0.911384105682373,#
11.43529987335205,-11.992826461791992,1.9908283948898315,-5.546492576599121,3.216721534729004,1.3230950832366943,#
10.875378608703612,-12.098111152648926,0.0717846825718879,-4.707188606262207,3.0505709648132324,2.036564826965332,#
10.107282638549805,-12.191431045532228,-1.2993026971817017,-3.8373422622680655,2.7952370643615723,2.62297797203064,#
10.217352867126465,-11.294123649597168,-2.187039852142334,-3.399975776672364,2.611982822418213,2.8367743492126465,#
10.217352867126465,-11.294123649597168,-2.187039852142334,-2.4714879989624023,2.2870118618011475,3.2643675804138184,#
9.602396965026855,-10.74138069152832,-2.548356056213379,-2.1880548000335693,2.1892764568328857,3.5221450328826904,#
8.25284481048584,-10.198209762573242,-3.270988702774048,-1.424495816230774,2.097649574279785,3.908200740814209,#
6.819544315338135,-9.53779125213623,-2.739781856536865,-0.660936713218689,2.117196559906006,4.013266086578369,#
6.0538411140441895,-8.657232284545898,-1.7132610082626345,-0.0781884491443634,2.070772171020508,3.948516607284546,#
5.615954875946045,-7.893921852111816,-0.818345308303833,1.068982720375061,1.907065153121948,3.690739154815674,#
5.615954875946045,-7.893921852111816,-0.818345308303833,2.1746160984039307,1.8215465545654297,3.413414478302002,#
5.467599868774414,-6.606583118438721,-0.0861416235566139,2.5728886127471924,1.7787871360778809,3.2851364612579346,#
4.926821708679199,-4.785645484924316,0.5216353535652161,2.813562393188477,1.7286977767944336,2.9467270374298096,#
3.596412420272827,-4.450649738311768,0.6221339106559753,2.344431638717652,1.6492875814437866,2.7231569290161133,#
2.754138946533203,-5.407779216766357,-0.7704889178276062,2.015795946121216,1.573542594909668,2.633973360061645,#
2.754138946533203,-5.407779216766357,-0.7704889178276062,1.180156946182251,1.4049487113952637,2.440945625305176,#
2.3617160320281982,-6.343372344970703,-2.1822540760040283,0.7244647741317749,1.3023263216018677,2.3297715187072754,#
1.954936146736145,-6.290730953216553,-3.462414264678955,-0.0109952501952648,1.1337324380874634,2.045116662979126,#
1.7180466651916504,-6.503692150115967,-3.4815566539764404,-0.767224133014679,0.9419264793395996,1.7653485536575315,#
1.3710873126983645,-7.085147857666016,-6.010770320892334,-1.066539287567139,0.8283088207244873,1.6150801181793213,#
1.2538390159606934,-8.3629150390625,-10.222138404846191,-2.0011355876922607,0.5118899941444397,1.4660333395004272,#
1.2538390159606934,-8.3629150390625,-10.222138404846191,-3.101882219314575,0.1417165547609329,1.4770286083221436,#
2.1439690589904785,-10.64806079864502,-12.744174003601074,-3.552687406539917,-0.1148392781615257,1.4037269353866575,left
5.783452033996582,-12.720245361328123,-11.614761352539062,-3.878880023956299,-0.7440119385719299,1.1215155124664309,left
7.858029365539551,-11.799009323120115,-10.459028244018556,-3.771370887756348,-1.0970816612243652,0.9455915093421936,left
8.140382766723633,-10.77727222442627,-11.583653450012209,-3.738384962081909,-1.8643057346344,0.6462763547897339,left
8.140382766723633,-10.77727222442627,-11.583653450012209,-4.230728149414063,-3.4903812408447266,0.3530696928501129,left
10.750951766967772,-13.2299165725708,-12.114861488342283,-4.602123260498047,-4.487284183502197,0.2443388998508453,left
13.2897367477417,-13.78744411468506,-11.799009323120115,-4.492170810699463,-6.509188175201416,-0.3017585575580597,left
16.058231353759766,-14.194223403930664,-8.767301559448242,-3.693182468414306,-8.341730117797852,-0.790436327457428,left
17.402999877929688,-15.110673904418944,-1.959721684455872,-3.33889102935791,-9.099180221557615,-1.068982720375061,left
17.402999877929688,-15.110673904418944,-1.959721684455872,-2.863651990890503,-10.385624885559082,-1.4819154739379885,left
16.371692657470703,-16.244873046875,7.345965385437012,-2.9723825454711914,-11.022127151489258,-1.640735745429993,left
10.346564292907717,-15.134603500366213,5.9198431968688965,-3.0334672927856445,-10.892627716064451,-1.7958909273147583,left
3.888336658477783,-15.677773475646973,-5.843273162841797,-2.9491703510284424,-10.011786460876465,-1.9938054084777832,left
7.176074504852295,-17.55853271484375,-17.42692756652832,-2.1343002319335938,-9.618400573730469,-1.830098390579224,left
21.82254219055176,-18.020347595214844,-7.412964344024658,-0.0842969194054603,-10.20970058441162,-0.5387672781944275,left
21.82254219055176,-18.020347595214844,-7.412964344024658,0.5595360994338989,-11.731932640075684,1.7409145832061768,left
17.934206008911133,-11.842079162597656,0.8398807048797607,-0.2076880484819412,-9.537768363952637,1.822768211364746,left
11.224730491638184,-9.817750930786133,5.656632423400879,-0.2504473626613617,-6.255075454711914,0.0879620015621185,left
11.21994400024414,-10.76530933380127,8.09970474243164,-0.7782194018363953,-5.168989658355713,0.3347443044185638,left
11.387442588806152,-10.549955368041992,9.702895164489746,-0.8845068216323853,-4.980848789215088,0.282211422920227,left
11.387442588806152,-10.549955368041992,9.702895164489746,-0.5473191142082214,-4.09756326675415,0.1172826737165451,left
9.042476654052734,-9.116654396057127,8.422735214233398,-0.4666872918605804,-3.4097492694854736,0.0146603342145681,left
6.0610198974609375,-8.683552742004395,6.273981094360352,-0.3897205293178558,-2.1343002319335938,0.1075091138482093,left
3.708875179290772,-8.264809608459473,4.158725738525391,-0.2687727808952331,-1.446486234664917,0.2541124522686004,left
2.2468602657318115,-7.963313579559326,2.275574445724488,-0.1490467190742492,-1.141062617301941,0.31641885638237,left
1.6510475873947144,-6.757331371307373,1.5912269353866575,0.2015795856714248,-0.7000309228897095,0.2480039745569229,left
1.6510475873947144,-6.757331371307373,1.5912269353866575,0.21135313808918,-0.2980934381484985,0.1771456897258758,#
1.2562319040298462,-5.946164608001709,1.2634103298187256,0.1502684205770492,-0.1026223376393318,0.1502684205770492,#
1.00259268283844,-6.252446174621582,0.861416220664978,-0.1099525094032287,0.2040229737758636,0.0452026948332786,#
0.935593605041504,-6.946363925933838,0.4498506784439087,-0.2968717515468597,0.310310423374176,-0.0329857505857944,#
0.6843472719192505,-7.542177200317383,-0.0693918615579605,-0.5717529654502869,0.5619794726371765,-0.1637070626020431,#
0.6843472719192505,-7.542177200317383,-0.0693918615579605,-0.4019374847412109,0.8942803740501404,-0.3628432750701904,#
0.6197410225868225,-7.75753116607666,-0.0598205626010894,-0.130721315741539,1.077534556388855,-0.463022232055664,#
0.4713860750198364,-7.707281589508057,-0.1531406491994857,0.494786262512207,1.3951750993728638,-0.712247908115387,#
0.7274181246757507,-5.778666496276856,-0.3158525824546814,1.233911395072937,1.7115939855575562,-1.0347752571105957,#
0.9762716889381408,-4.790431022644043,-0.916451096534729,1.2510151863098145,1.894848108291626,-1.2070342302322388,#
0.9762716889381408,-4.790431022644043,-0.916451096534729,1.0201148986816406,2.208823680877685,-1.5503302812576294,#
1.3280165195465088,-6.348158359527588,-0.8781659603118896,0.9773555994033812,2.2784602642059326,-1.7348061800003052,#
1.6175479888916016,-7.214360237121582,1.2993026971817017,1.0531005859375,2.3419883251190186,-2.115974903106689,#
1.4141581058502195,-7.156932830810547,-1.495514154434204,1.7506881952285769,2.549676418304444,-2.583883762359619,#
2.09850549697876,-5.307280540466309,-2.2923240661621094,2.326106309890747,2.673067569732666,-2.824557542800904,#
2.7876384258270264,-4.254438400268555,-2.155933380126953,2.3713088035583496,2.640081882476806,-3.324230670928955,#
2.7876384258270264,-4.254438400268555,-2.155933380126953,1.6529526710510254,2.554563045501709,-3.883766651153565,#
3.4743783473968506,-5.125426292419434,-1.2538390159606934,1.5967546701431274,2.4079599380493164,-4.154983043670654,#
4.54636287689209,-6.716653347015381,-0.5264209508895874,1.3915101289749146,2.113531351089477,-4.583797931671143,#
6.151947498321533,-9.174081802368164,-0.3038884699344635,1.5466653108596802,1.852088928222656,-4.946640968322754,#
7.99681282043457,-7.140182495117188,0.7728817462921143,1.5637688636779783,1.6883817911148071,-5.100574493408203,#
7.99681282043457,-7.140182495117188,0.7728817462921143,0.3029802441596985,1.4977973699569702,-5.263059616088867,#
9.396614074707031,-6.175874710083008,1.0863415002822876,-0.1404948681592941,1.4868022203445437,-5.420658111572266,#
11.042876243591309,-7.3052873611450195,2.407179594039917,-0.9797989726066588,1.47825026512146,-5.70409107208252,#
14.139189720153809,-10.207781791687012,3.168097257614136,-1.3096565008163452,1.3878449201583862,-5.711421489715576,#
16.981861114501953,-9.80100154876709,4.362115383148193,-1.3340904712677002,1.2632319927215576,-5.619794845581055,#
17.55613899230957,-7.788637638092041,3.38105845451355,-1.7848955392837524,1.30476975440979,-5.478078365325928,#
17.55613899230957,-7.788637638092041,3.38105845451355,-2.5704450607299805,1.775122046470642,-5.186092853546143,#
17.797815322875977,-9.198010444641112,2.935993194580078,-3.1812922954559326,2.015795946121216,-4.93442440032959,#
18.38884162902832,-12.342178344726562,2.857030153274536,-4.520269393920898,2.47881817817688,-4.180638790130615,#
16.541582107543945,-14.23250961303711,3.046063184738159,-5.512285232543945,3.169075489044189,-3.341334342956543,#
14.510075569152832,-13.765909194946287,4.551148891448975,-5.881237506866455,3.3950889110565186,-2.861208438873291,#
14.510075569152832,-13.765909194946287,4.551148891448975,-6.394349098205566,3.595446825027466,-1.786117434501648,#
13.684553146362305,-13.820942878723145,4.560719966888428,-6.593485355377197,3.726168155670166,-1.178935170173645,#
12.701102256774902,-14.036296844482422,1.9932212829589844,-6.930673122406006,4.021818161010742,0.1563768982887268,#
11.172088623046877,-15.036497116088867,-0.0550349205732345,-6.586154937744141,4.040143966674805,1.3756279945373535,#
10.715059280395508,-15.04128360748291,-0.7968099117279053,-6.026618957519531,3.861776351928711,1.931498885154724,#
10.715059280395508,-15.04128360748291,-0.7968099117279053,-4.683976650238037,3.789696216583252,2.9723825454711914,#
10.791629791259766,-14.854642868041992,-0.2129612118005752,-3.462282180786133,3.723724842071533,3.623545646667481,#
10.640881538391112,-14.163116455078123,-0.2201396822929382,-2.7353739738464355,3.7127294540405273,3.883766651153565,#
9.745966911315918,-12.39003562927246,-0.9762716889381408,-1.3096565008163452,3.484272718429565,4.214846134185791,#
8.568697929382324,-10.040283203125,-1.2370892763137815,-0.7146912813186646,3.318122148513794,4.33945894241333,#
6.982256412506104,-8.793622970581055,-1.902293920516968,0.0623064190149307,3.045684337615967,4.468958377838135,#
6.982256412506104,-8.793622970581055,-1.902293920516968,0.5558710098266602,2.831887722015381,4.412760257720947,#
5.601597785949707,-7.374679565429687,-2.7349963188171387,0.7061393857002258,2.718270301818848,4.374887943267822,#
4.448256969451904,-6.5180487632751465,-2.9288151264190674,0.8099834322929382,2.414068460464477,4.176973342895508,#
3.38105845451355,-5.687739372253418,-3.620340585708618,0.6132906079292297,2.042673110961914,3.873993158340454,#
2.8594231605529785,-6.130411148071289,-3.780659914016724,0.4056025743484497,1.8533105850219729,3.726168155670166,#
2.8594231605529785,-6.130411148071289,-3.780659914016724,0.2272351831197738,1.452594757080078,3.4378480911254883,#
2.71346116065979,-5.343173027038574,-3.562912940979004,0.128277912735939,1.2693406343460083,3.2765846252441406,#
2.2468602657318115,-4.156332969665527,-4.388436794281006,-0.1062874197959899,0.8979454636573792,2.947948932647705,#
1.7204395532608032,-4.991428375244141,-4.677968502044678,-0.5143333673477173,0.5534276366233826,2.6742892265319824,#
1.7994027137756348,-5.405385971069336,-3.9912283420562735,-0.6755970120429993,0.3371876776218414,2.520355701446533,#
2.026720762252808,-5.962913990020752,-3.924229145050049,-0.9626952409744264,-0.1123958900570869,2.2295923233032227,#
2.026720762252808,-5.962913990020752,-3.924229145050049,-0.860072910785675,-0.4972296357154846,1.8667491674423216,#
1.131805181503296,-5.623133182525635,-4.7234320640563965,-0.8258654475212097,-0.6303943395614624,1.7274760007858276,#
0.2919243574142456,-6.439085483551025,-6.750153064727783,-0.98590749502182,-1.0433270931243896,1.4025052785873413,#
1.306481122970581,-10.11924648284912,-6.7621169090271,-1.3585243225097656,-1.2595670223236084,1.2620103359222412,#
3.304487943649292,-13.73240852355957,-6.556333541870117,-2.3566486835479736,-1.7030421495437622,1.1826002597808838,#
3.304487943649292,-13.73240852355957,-6.556333541870117,-3.072561740875244,-2.250361204147339,0.9932376146316528,left
3.6921253204345694,-14.775679588317873,-7.446464061737059,-3.261924266815185,-2.698723077774048,0.8551861643791199,left
4.644468784332275,-14.33061408996582,-7.628318786621094,-3.775036096572876,-3.9301912784576416,0.6853706240653992,left
6.807580471038818,-15.488740921020508,-6.726224899291992,-4.378552913665772,-5.358351707458496,0.6047387719154358,left
8.59501838684082,-15.763916015625,-3.433700561523437,-4.536151885986328,-6.139014720916748,0.5766398310661316,left
8.59501838684082,-15.763916015625,-3.433700561523437,-4.900216579437256,-7.614821434020996,0.4178195297718048,left
9.31765079498291,-14.6608247756958,0.0693918615579605,-5.419436454772949,-8.765657424926758,0.0745233595371246,left
8.305487632751465,-13.064811706542969,3.814159393310547,-5.893454074859619,-9.005110740661621,-0.2651077210903168,left
4.551148891448975,-13.85922908782959,0.5264209508895874,-6.0828166007995605,-8.757105827331543,-1.1667182445526123,left
0.5599204897880554,-16.512868881225586,-6.03230619430542,-5.996076583862305,-8.375937461853027,-1.6016414165496826,left
3.610769510269165,-15.608383178710938,-13.940585136413574,-4.305251598358154,-8.006985664367676,-2.279681921005249,left
3.610769510269165,-15.608383178710938,-13.940585136413574,-1.810551166534424,-9.173704147338867,-1.6297403573989868,left
14.746965408325195,-19.159330368041992,-6.1256256103515625,-0.634059488773346,-10.36363410949707,-0.939483106136322,left
16.280765533447266,-12.787243843078612,2.847458839416504,0.4495835602283478,-10.120516777038574,1.2241379022598269,left
10.124032974243164,-13.466805458068848,8.630911827087402,0.393385648727417,-6.411452770233154,0.499673068523407,left
9.870393753051758,-11.11705493927002,10.588239669799805,0.5204418301582336,-5.424323081970215,0.4153760969638824,left
9.870393753051758,-11.11705493927002,10.588239669799805,0.4825693070888519,-4.479953765869141,0.6401678919792175,left
8.666803359985352,-8.740981101989746,10.305886268615724,0.4434750974178314,-3.814130306243897,0.707361102104187,left
6.611368656158447,-6.601797103881836,7.322037220001221,0.0977355539798736,-2.337101697921753,0.8002098798751831,left
4.8813581466674805,-7.695317268371582,6.884150981903076,-0.3567348122596741,-1.40617036819458,0.5155550837516785,left
2.093719720840454,-9.635896682739258,6.364907741546631,-0.5717529654502869,-0.966360330581665,0.3616215586662292,left
0.1268195956945419,-9.22433090209961,3.7710886001586914,-0.5925218462944031,-0.2736595571041107,-0.1685938388109207,left
0.1268195956945419,-9.22433090209961,3.7710886001586914,-0.3677300214767456,0.2284568697214126,-0.1478250324726104,left
-0.4402793645858764,-7.869993209838867,0.8350951075553894,-0.2626643180847168,0.3408527672290802,-0.1026223376393318,left
-0.6508477926254272,-7.051648139953613,-0.5479563474655151,-0.3518480062484741,0.393385648727417,-0.2150182276964187,left
-1.4380863904953003,-6.240481376647949,-1.361515998840332,-0.445918470621109,0.6120689511299133,-0.2883199155330658,left
-1.2562319040298462,-5.7547383308410645,-1.4883356094360352,-0.4837909936904907,0.7171346545219421,-0.3713951408863067,left
-1.2562319040298462,-5.7547383308410645,-1.4883356094360352,-0.546097457408905,0.6939224600791931,-0.549762487411499,left
-0.5623133182525635,-6.410372257232666,-0.5359922647476196,-0.6499415040016174,0.6022953391075134,-0.6084038615226746,#
-0.3828516006469726,-6.903293132781982,0.1220339611172676,-0.7256865501403809,0.6377245187759399,-0.7660024166107178,#
-0.2560320198535919,-6.147161483764648,0.2703889608383178,-0.3640649616718292,0.9345962405204772,-0.98590749502182,#
0.260817676782608,-5.785844802856445,-0.6699903011322021,-0.1172826737165451,1.100746750831604,-1.0970816612243652,#
0.260817676782608,-5.785844802856445,-0.6699903011322021,0.3396310806274414,1.401283621788025,-1.3304253816604614,#
1.0001999139785769,-5.39342212677002,-1.442872166633606,0.3542913794517517,1.705485463142395,-1.6016414165496826,#
1.043270707130432,-5.290531158447266,-1.1724830865859983,0.3127537965774536,1.8679708242416384,-1.7787871360778809,#
1.1820544004440308,-5.139782905578613,-0.5168496966362,0.4422534108161926,2.148960590362549,-2.233257532119751,#
1.6677974462509155,-4.462614059448242,-0.0239282250404357,0.6462763547897339,2.2491395473480225,-2.473931312561035,#
2.6392831802368164,-4.077369689941406,-0.1435693651437759,0.9907942414283752,2.428728580474853,-2.945505380630493,#
2.6392831802368164,-4.077369689941406,-0.1435693651437759,1.1569446325302124,2.565558433532715,-3.399975776672364,#
3.864408254623413,-4.534398555755615,-0.0885344371199607,1.0983033180236816,2.60953950881958,-3.628432512283325,#
5.307280540466309,-5.158926010131836,-0.1866401582956314,0.998124361038208,2.647412061691284,-4.13054895401001,#
6.874579429626465,-6.805188179016113,-1.0719845294952393,0.7061393857002258,2.739039182662964,-4.644882678985596,#
8.781659126281738,-9.286543846130373,-1.3136597871780396,0.5509842038154602,2.7781333923339844,-4.857457160949707,#
8.781659126281738,-9.286543846130373,-1.3136597871780396,0.2932066619396209,2.6217563152313232,-5.088357448577881,#
10.195816040039062,-10.533205032348633,-1.777867317199707,0.2773246467113495,2.455605745315552,-5.267946720123291,#
11.018948554992676,-8.82233715057373,-1.4452648162841797,0.5155550837516785,2.381082773208618,-5.652780532836914,#
12.198609352111816,-6.850651264190674,0.2273181527853012,0.6902573704719543,2.2613565921783447,-5.975307464599609,#
14.873785018920898,-8.133204460144043,2.3401806354522705,0.4666872918605804,2.076880693435669,-6.135349750518799,#
19.106687545776367,-10.631311416625977,4.484149932861328,-0.3017585575580597,1.6627261638641355,-6.219646453857422,#
19.106687545776367,-10.631311416625977,4.484149932861328,-0.9040539264678956,1.1288456916809082,-6.035170555114746,#
20.851057052612305,-11.303693771362305,4.23529577255249,-0.9883508682250975,1.0616525411605835,-5.950873851776123,#
19.463218688964844,-9.080761909484863,3.919443368911743,-1.1361758708953855,1.6431790590286257,-5.504955768585205,#
18.223737716674805,-6.857830047607422,5.647061824798584,-2.858765125274658,2.1685078144073486,-4.273487091064453,#
16.979469299316406,-8.970691680908203,6.996613025665283,-3.66264009475708,2.311445951461792,-3.654088020324707,#
16.979469299316406,-8.970691680908203,6.996613025665283,-4.729179382324219,2.718270301818848,-2.732930421829224,#
15.737593650817873,-10.609774589538574,7.154539585113525,-5.138447284698486,2.8575432300567627,-2.178281307220459,#
13.785051345825195,-11.370694160461426,3.5461630821228027,-5.88368034362793,3.4903812408447266,-0.8955020904541016,#
12.332609176635742,-11.420943260192873,-0.0765703245997428,-6.592263221740723,3.7591538429260254,0.1918060332536697,#
11.152946472167969,-11.995219230651855,-2.7254250049591064,-6.693664073944092,3.6601967811584473,0.6768187284469604,#
11.152946472167969,-11.995219230651855,-2.7254250049591064,-6.311273574829102,3.867884635925293,1.6798299551010132,#
9.63828945159912,-13.73958683013916,-1.3998013734817505,-5.836034774780273,4.15986967086792,2.51180386543274,#
8.863015174865723,-16.438692092895508,0.9451649785041808,-5.456087589263916,4.185525417327881,2.824557542800904,#
9.059226989746094,-13.691730499267578,0.6891329884529114,-4.003492832183838,4.032813549041748,3.375541925430298,#
9.07119083404541,-10.01874828338623,-1.2873386144638062,-3.0505709648132324,4.005936145782471,3.599112033843994,#
8.50887680053711,-8.621339797973633,-0.6197410225868225,-1.6492875814437866,3.919195890426636,3.676078796386719,#
8.50887680053711,-8.621339797973633,-0.6197410225868225,-1.0970816612243652,3.679743766784668,3.734720230102539,#
7.511070251464844,-8.341379165649414,-1.0552347898483276,-1.0738694667816162,3.5074849128723145,3.721281528472901,#
6.580262184143066,-7.2335028648376465,-0.413958340883255,-0.6768187284469604,3.1031041145324707,3.666305303573608,#
5.819344997406006,-7.546962738037109,-0.6532405614852905,-0.0219905003905296,2.666959047317505,3.5563526153564453,#
5.312066078186035,-6.26440954208374,-2.6153552532196045,0.4618005454540252,2.4543843269348145,3.4610605239868164,#
5.312066078186035,-6.26440954208374,-2.6153552532196045,0.9236010909080504,2.080545663833618,3.2326035499572754,#
4.211367607116699,-5.56331205368042,-4.25922441482544,0.9969027042388916,1.9473810195922847,3.101882219314575,#
3.103491306304932,-4.828716278076172,-4.287938117980957,0.9480348825454712,1.7042638063430786,2.820892572402954,#
2.6321046352386475,-4.4961137771606445,-2.71346116065979,0.7708892226219177,1.4513731002807615,2.489813327789306,#
2.0961124897003174,-4.826323509216309,-2.7278177738189697,0.7061393857002258,1.321873426437378,2.3016724586486816,#
2.263610363006592,-6.922436237335205,-2.737389087677002,0.3151971697807312,1.0482138395309448,2.0243477821350098,#
2.263610363006592,-6.922436237335205,-2.737389087677002,0.0952921733260154,0.7452336549758911,1.767791986465454,#
2.1607186794281006,-6.905685901641846,-3.0484561920166016,0.0293206684291362,0.5803048610687256,1.6358489990234375,#
1.5912269353866575,-6.295516490936279,-4.07258415222168,-0.2211267054080963,0.175924003124237,1.3988401889801023,#
1.765903115272522,-7.278966426849365,-4.797609329223633,-0.8820634484291077,-0.3078669905662536,1.1935955286026,#
2.6608188152313232,-8.886943817138672,-5.008177757263184,-1.288887619972229,-0.5644228458404541,1.1215155124664309,#
2.6608188152313232,-8.886943817138672,-5.008177757263184,-2.1452953815460205,-1.1215155124664309,0.96147358417511,#
3.091526985168457,-10.389636039733888,-5.659025192260742,-2.615647792816162,-1.424495816230774,0.8710681796073914,#
3.76151704788208,-11.95932674407959,-6.690331935882568,-3.3608815670013428,-2.0781023502349854,0.63283771276474,left
4.78803825378418,-13.26820182800293,-7.836494445800781,-4.120775699615479,-2.774468183517456,0.4569137394428253,left
7.008577823638916,-14.383256912231444,-8.71944522857666,-4.6473259925842285,-3.170297145843506,0.3701734542846679,left
7.008577823638916,-14.383256912231444,-8.71944522857666,-6.253853797912598,-4.140322685241699,0.2186833024024963,left
9.87278652191162,-16.692331314086914,-7.068397998809815,-8.218338966369629,-5.384007453918457,-0.1246128380298614,left
11.291730880737305,-15.129817008972168,-4.493720531463623,-8.685026168823242,-6.1487884521484375,-0.5216635465621948,left
11.933006286621094,-13.330414772033691,-2.416750907897949,-8.752219200134277,-7.631925582885742,-1.446486234664917,left
11.318050384521484,-11.191231727600098,-1.3974084854125977,-8.708237648010254,-8.175579071044922,-1.9730366468429563,left
7.319644451141357,-14.73739528656006,-7.8819580078125,-8.307522773742676,-8.777874946594238,-3.143419981002808,left
7.319644451141357,-14.73739528656006,-7.8819580078125,-5.447535991668701,-8.468786239624023,-4.3626708984375,left
3.0652055740356445,-26.103302001953125,-14.208581924438477,-3.0444626808166504,-8.182909965515137,-4.718183994293213,left
5.424529075622559,-20.963520050048828,-9.183652877807615,1.0140063762664795,-8.99655818939209,-3.7457151412963854,left
8.528019905090332,-15.77827262878418,-12.011969566345217,2.251582860946656,-9.762560844421388,-1.887518048286438,left
13.074383735656738,-9.626325607299805,-4.524827480316162,2.8221142292022705,-10.236578941345217,-1.5039058923721311,left
13.074383735656738,-9.626325607299805,-4.524827480316162,2.7084968090057373,-9.275104522705078,0.0280989725142717,left
12.0933256149292,-6.625725746154785,2.079362869262696,2.554563045501709,-8.389375686645508,-0.1795890927314758,left
12.643674850463867,-10.595418930053713,7.740781307220459,2.6193130016326904,-6.97221040725708,-0.3701734542846679,left
11.461621284484863,-10.52841854095459,9.121439933776855,1.921725392341613,-5.677214622497559,0.0390942245721817,left
8.855835914611816,-6.647261142730713,8.997013092041016,1.6920467615127563,-4.73895263671875,0.1331647038459777,left
6.453442573547363,-3.2135608196258545,7.915457248687744,1.4635900259017944,-2.993151426315308,0.3787252902984619,left
6.453442573547363,-3.2135608196258545,7.915457248687744,0.4837909936904907,-1.7030421495437622,0.5338804721832275,left
3.739981651306152,-3.689732551574707,6.290730953216553,0.0500894747674465,-1.1105202436447144,0.4446967840194702,left
1.6295121908187866,-6.02512788772583,4.591826438903809,-0.5363238453865051,-0.2284568697214126,0.2162399291992187,left
0.2033899277448654,-7.666603565216064,3.6562328338623047,-0.785549521446228,0.1930277347564697,0.0171037223190069,#
-0.1866401582956314,-7.592426776885986,2.8354949951171875,-0.8783983588218689,0.261442631483078,-0.1685938388109207,#
-0.1866401582956314,-7.592426776885986,2.8354949951171875,-1.0787562131881714,0.4312581717967987,-0.4104893505573272,#
0.1004985496401786,-7.104290962219238,1.741974949836731,-1.0482138395309448,0.5509842038154602,-0.463022232055664,#
0.1986042857170105,-7.022934436798096,0.4881358444690704,-0.96147358417511,0.7794410586357117,-0.6352811455726624,#
0.260817676782608,-6.783651828765869,-0.3230310678482055,-0.8173136115074158,0.9736905097961426,-0.9492565989494324,#
0.3254238963127136,-6.927221298217773,-0.8087739944458008,-0.7403469085693359,1.100746750831604,-1.0616525411605835,#
0.3397807776927948,-6.982256412506104,-0.6747759580612183,-0.3762818872928619,1.3438639640808103,-1.2913310527801514,#
0.3397807776927948,-6.982256412506104,-0.6747759580612183,0.1258345395326614,1.5051275491714478,-1.5979763269424438,#
0.6867401003837585,-6.307480335235596,-0.6556334495544434,0.3494046330451965,1.5991979837417605,-1.793447494506836,#
1.1030912399291992,-6.106483459472656,-0.794417142868042,0.6707102656364441,1.7323628664016724,-2.2466959953308105,#
1.428515076637268,-7.267002105712891,-1.368694543838501,0.7928797006607056,1.7910041809082031,-2.418955087661743,#
1.66301167011261,-8.535198211669922,-0.5934200286865234,1.3463072776794434,1.8508671522140503,-2.754921197891236,#
1.66301167011261,-8.535198211669922,-0.5934200286865234,2.0011355876922607,1.979145050048828,-3.0212504863739014,#
1.964507341384888,-8.793622970581055,-0.2105683833360672,2.288233757019043,2.100092887878418,-3.2045047283172607,#
2.2229323387146,-7.386643409729004,0.6149553656578064,2.1220834255218506,2.2369225025177,-3.56123948097229,#
2.7014968395233154,-8.262415885925293,0.5479563474655151,2.2063801288604736,2.170951128005981,-3.908200740814209,#
3.4193434715271,-9.839285850524902,0.6484549045562744,2.4714879989624023,2.0011355876922607,-4.043808460235596,#
3.4193434715271,-9.839285850524902,0.6484549045562744,3.148306608200073,1.6468441486358645,-4.2624921798706055,#
4.651647090911865,-11.428120613098145,2.5292134284973145,3.721281528472901,1.4758068323135376,-4.389548301696777,#
5.481956481933594,-12.792030334472656,3.2853453159332275,5.5880303382873535,1.1813786029815674,-4.7951507568359375,#
6.534798622131348,-8.585447311401367,8.398807525634766,5.882458686828613,0.6071821451187134,-5.177541255950928,#
9.540184020996094,-11.507083892822266,11.74158000946045,5.644228458404541,0.3640649616718292,-5.175097465515137,#
11.813365936279297,-12.167502403259276,11.057233810424805,7.496316909790039,-0.5448757410049438,-5.193423271179199,#
11.813365936279297,-12.167502403259276,11.057233810424805,9.501118659973145,-1.3756279945373535,-5.177541255950928,#
12.935599327087402,-4.3070807456970215,11.184053421020508,9.829753875732422,-1.2778924703598022,-5.074918746948242,#
13.82812213897705,6.716653347015381,12.777671813964844,9.784551620483398,-0.9321528673171996,-4.817141532897949,#
15.596417427062988,9.059226989746094,16.500904083251953,6.417561054229736,-0.8307521939277649,-4.250275135040283,#
15.792630195617676,3.225525140762329,16.81436538696289,4.328463554382324,-0.53143709897995,-3.9179742336273193,#
15.792630195617676,3.225525140762329,16.81436538696289,0.0806318372488021,0.3432961404323578,-2.951613664627075,#
13.359129905700684,-1.2131611108779907,15.177674293518066,-1.2632319927215576,0.8160918951034546,-2.467822790145874,#
11.203195571899414,-5.077569961547852,15.089139938354492,-1.918060302734375,1.794669270515442,-2.0292346477508545,#
8.884550094604492,-4.333401679992676,15.328421592712402,-0.8906152844429016,2.4543843269348145,-1.822768211364746,#
6.664010524749756,-2.368894338607788,14.517254829406738,-0.2577775418758392,2.75003433227539,-1.7323628664016724,#
6.486942291259766,-3.1202406883239746,13.730015754699709,0.5534276366233826,3.1666321754455566,-1.6224102973937988,#
6.486942291259766,-3.1202406883239746,13.730015754699709,1.3426421880722046,3.2558157444000244,-1.571099042892456,#
5.489135265350342,-2.3473589420318604,10.832307815551758,1.907065153121948,3.2326035499572754,-1.5222313404083252,#
5.14456844329834,-2.1272192001342773,10.693524360656738,1.7971125841140747,3.0383541584014893,-1.137397527694702,#
4.8502516746521,-3.773481369018554,9.408578872680664,1.7274760007858276,3.165410280227661,-1.141062617301941,#
3.854837417602539,-2.6775684356689453,8.980262756347656,2.004800796508789,3.2594807147979736,-1.1520578861236572,#
3.854837417602539,-2.6775684356689453,8.980262756347656,1.9913619756698608,3.173962354660034,-0.758672297000885,#
2.6536402702331543,-2.629711866378784,7.836494445800781,1.9925836324691768,3.231381893157959,-0.5803048610687256,#
1.8831514120101929,-2.1272192001342773,6.654439926147461,2.0463383197784424,3.143419981002808,-0.3347443044185638,#
1.495514154434204,-1.6031911373138428,7.226324081420898,2.085432529449463,2.9467270374298096,-0.0232121963053941,#
0.9834501147270204,-1.2227323055267334,6.5491557121276855,2.15506911277771,2.861208438873291,0.100178949534893,#
0.9834501147270204,-1.2227323055267334,6.5491557121276855,2.1685078144073486,2.6938364505767822,0.199136197566986,#
0.4283152520656585,0.0143569353967905,5.056034088134766,2.0817673206329346,2.625421524047852,0.2260134816169738,#
-0.0454636327922344,0.6867401003837585,4.792823314666748,2.031677961349488,2.497143507003784,0.3994940817356109,#
-0.5766702890396118,1.0695916414260864,4.60857629776001,1.9595979452133176,2.4055163860321045,0.605960488319397,#
-1.325623631477356,2.730210542678833,2.900100946426392,1.859418988227844,2.32854962348938,0.6584933400154114,#
-1.969292998313904,3.2374887466430664,2.933600425720215,1.5197879076004028,2.137965440750122,0.7598939538002014,#
-1.969292998313904,3.2374887466430664,2.933600425720215,1.369519591331482,1.9156169891357424,0.939483106136322,#
-1.5649060010910034,3.3020951747894287,3.2374887466430664,1.3145432472229004,1.7286977767944336,1.0408836603164673,#
-1.4787644147872925,4.019941806793213,2.914458036422729,1.137397527694702,1.4159438610076904,1.0946382284164429,#
-1.8065810203552248,5.0201416015625,3.141776323318481,0.9089407324790956,1.2058125734329224,1.2094775438308716,#
-1.5050854682922363,5.402993679046631,4.127618789672852,0.7916580438613892,1.0885297060012815,1.26567542552948,#
-1.5050854682922363,5.402993679046631,4.127618789672852,0.6548282504081726,0.7989881634712219,1.26567542552948,#
-0.9595218896865844,6.692724704742432,4.232903003692627,0.6181774139404297,0.652384877204895,1.2473500967025757,#
-1.0408778190612793,7.156932830810547,3.919443368911743,0.4801259338855743,0.4801259338855743,1.2180293798446655,#
-0.8853443264961243,6.9344000816345215,4.371686935424805,0.2993151545524597,0.3762818872928619,1.196038842201233,#
-0.5431707501411438,7.2502522468566895,5.3694939613342285,0.1685938388109207,0.2895416021347046,1.1459494829177856,#
-0.5670989155769348,7.429713726043701,6.161518096923828,-0.0293206684291362,0.1563768982887268,0.9822423458099364,#
-0.5670989155769348,7.429713726043701,6.161518096923828,-0.1404948681592941,0.1172826737165451,0.8515210747718811,#
-0.4354937374591827,7.925028324127197,5.824130058288574,-0.128277912735939,0.0879620015621185,0.7916580438613892,#
-0.1938186287879943,7.798208713531494,5.797809600830078,-0.1429382413625717,0.0305423624813556,0.6474980711936951,#
0.0981057211756706,7.41535758972168,6.398407459259033,-0.100178949534893,0.007330167107284,0.5607577562332153,#
0.1028913781046867,7.561319828033447,6.853044033050537,-0.1246128380298614,-0.0097735561430454,0.5241069197654724,#
0.1028913781046867,7.561319828033447,6.853044033050537,-0.2186833024024963,0.003665083553642,0.3921639025211334,#
-0.1316052377223968,7.3052873611450195,6.845865249633789,-0.2284568697214126,0.0207688063383102,0.333522617816925,#
-0.0167497582733631,7.010970115661621,7.085147857666016,-0.21135313808918,0.0146603342145681,0.2431172132492065,#
0.1890329867601394,7.077969074249268,7.211967468261719,-0.0684148892760276,-0.0207688063383102,0.1685938388109207,#
0.0526420958340168,7.276573657989502,7.046862602233887,0.0122169442474842,-0.0256555844098329,0.1478250324726104,#
0.0526420958340168,7.276573657989502,7.046862602233887,0.040315918624401,0.0171037223190069,0.1050657257437706,#
-0.1124626696109771,6.975078105926514,7.003791332244873,-0.0158820282667875,0.040315918624401,0.0904053896665573,#
-0.0382851622998714,7.046862602233887,6.819544315338135,-0.1075091138482093,0.0488677769899368,0.0232121963053941,#
-0.2057827562093734,6.92482852935791,6.75493860244751,-0.1820324808359146,0.0500894747674465,-0.0268772784620523,#
-0.2703889608383178,6.620940208435059,6.963113307952881,-0.2028012871742248,0.0720799788832664,-0.0305423624813556,#
-0.3158525824546814,6.87697172164917,6.67836856842041,-0.1979145109653473,0.0757450610399246,-0.007330167107284,#
-0.3158525824546814,6.87697172164917,6.67836856842041,-0.1466033309698104,0.0390942245721817,-0.0109952501952648,#
-0.1914258003234863,6.817151546478272,6.640083312988281,-0.1600419729948043,0.0219905003905296,-0.0256555844098329,#
-0.1316052377223968,6.431907176971436,6.999006271362305,-0.2345653474330902,0.003665083553642,-0.0513111688196659,#
-0.2057827562093734,6.364907741546631,7.257431030273437,-0.2211267054080963,0.0061084721237421,-0.0610847249627113,#
-0.260817676782608,6.403193473815918,7.133004188537598,-0.1588202863931656,0.003665083553642,-0.0415376126766204,#
-0.260817676782608,6.403193473815918,7.133004188537598,-0.0293206684291362,-0.007330167107284,-0.007330167107284,#
-0.1698903888463974,6.577868938446045,6.991827487945557,0.0146603342145681,-0.0232121963053941,-0.0109952501952648,#
-0.0861416235566139,6.57547664642334,7.188039302825928,0.0232121963053941,-0.0342074446380138,-0.0305423624813556,#
-0.2153540551662445,6.537191867828369,7.39142894744873,-0.0464243926107883,-0.007330167107284,-0.031764056533575,#
-0.2321037948131561,6.656832218170166,7.372286796569824,-0.0598630309104919,0.003665083553642,-0.0268772784620523,#
-0.138783723115921,6.695117950439453,7.104290962219238,-0.0158820282667875,0.0085518611595034,-0.040315918624401,#
-0.138783723115921,6.695117950439453,7.104290962219238,0.0134386392310261,0.0183254163712263,-0.0598630309104919,#
-0.1100698411464691,6.711867332458496,6.972684860229492,0.0048867780715227,0.0244338884949684,-0.0720799788832664,#
-0.0861416235566139,6.719045639038086,6.891329765319824,-0.0574196390807628,0.0280989725142717,-0.100178949534893,#
-0.0765703245997428,6.67836856842041,6.881758213043213,-0.0855186134576797,0.0305423624813556,-0.1123958900570869,#
-0.1124626696109771,6.640083312988281,6.745367050170898,-0.1050657257437706,0.0366508327424526,-0.1270562261343002,#
-0.1124626696109771,6.640083312988281,6.745367050170898,-0.1368297785520553,0.0195471122860908,-0.1575985848903656,#
-0.1363908797502517,6.597012042999268,6.439085483551025,-0.1563768982887268,0.0061084721237421,-0.1869192570447921,#
-0.0622133873403072,6.597012042999268,6.082554817199707,-0.2761029601097107,-0.0195471122860908,-0.2443388998508453,#
-0.1124626696109771,6.362515449523926,5.958127975463867,-0.4275930821895599,-0.0561979450285434,-0.2932066619396209,#
-0.0789631456136703,6.242874622344971,5.625525951385498,-0.5277720093727112,-0.0842969194054603,-0.3298574984073639,#
-0.0789631456136703,6.242874622344971,5.625525951385498,-0.6890356540679932,-0.1624853760004043,-0.4434750974178314,#
-0.3014956414699554,6.252446174621582,4.785645484924316,-1.0005677938461304,-0.2333436459302902,-0.5680879354476929,#
-0.246460735797882,6.496513843536377,4.354937553405762,-1.2705622911453247,-0.2809897363185882,-0.6291726231575012,#
-0.1196411252021789,6.063412666320801,3.8500516414642334,-2.26990818977356,-0.4263713657855987,-0.7562289237976074,#
0.1483550071716308,5.168497085571289,3.404986619949341,-2.950392246246338,-0.4385882914066314,-0.8832851052284241,#
0.5144568681716919,3.608376264572144,3.3236305713653564,-4.591127872467041,-0.4556920528411865,-1.1654964685440063,#
0.5144568681716919,3.608376264572144,3.3236305713653564,-6.068156719207764,-0.4068242609500885,-1.5405566692352295,#
0.7992027401924133,1.4261221885681152,2.98384976387024,-6.64846134185791,-0.3579564988613128,-1.722589135169983,#
1.1198409795761108,-1.0360921621322632,4.505684852600098,-7.23731803894043,-0.2712161839008331,-2.047559976577759,#
1.294516921043396,-2.9623143672943115,5.149354457855225,-7.503647327423096,-0.235787034034729,-2.2320358753204346,#
1.3328022956848145,-3.352344274520874,5.137389659881592,-7.31917142868042,-0.1673721522092819,-2.354205369949341,#
1.3328022956848145,-3.352344274520874,5.137389659881592,-7.066280841827393,-0.0342074446380138,-2.5704450607299805,#
1.1389836072921753,-3.1585259437561035,4.1659040451049805,-6.762079238891602,0.0134386392310261,-2.685284376144409,#
1.2323036193847656,-2.2707886695861816,3.76151704788208,-6.484754085540772,-0.0635281130671501,-2.8746471405029297,#
1.8281164169311523,-3.802195072174072,3.383451223373413,-6.398014068603516,-0.1942494213581085,-2.918627977371216,#
3.0388848781585693,-7.709674835205078,4.299902439117432,-6.09259033203125,-0.3054236173629761,-2.9528355598449707,#
4.357330322265625,-10.66481113433838,4.465007305145264,-5.309484004974365,-0.5155550837516785,-3.214278221130371,#
4.357330322265625,-10.66481113433838,4.465007305145264,-4.437194347381592,-0.5876350998878479,-3.586894989013672,#
4.2376885414123535,-11.198410987854004,4.0797624588012695,-3.8874318599700928,-0.554649293422699,-3.663861989974976,#
3.704089403152466,-10.978270530700684,4.488935470581055,-2.967495918273926,-0.4556920528411865,-3.552687406539917,#
4.060619831085205,-10.241281509399414,5.161318302154541,-2.557006359100342,-0.6670452356338501,-3.436626672744751,#
4.878964900970459,-10.17906665802002,4.453042984008789,-2.696279764175415,-0.8955020904541016,-3.429296493530273,#
4.878964900970459,-10.17906665802002,4.453042984008789,-2.4812614917755127,-1.187487006187439,-3.4647257328033447,#
5.496313571929932,-10.061819076538086,4.146761417388916,-2.365200519561768,-1.2546802759170532,-3.462282180786133,#
5.819344997406006,-9.501898765563965,4.441079139709473,-2.0463383197784424,-1.3463072776794434,-3.3889806270599365,#
6.541977405548096,-8.757731437683105,5.199604034423828,-2.1367435455322266,-1.4367127418518066,-3.28024959564209,#
7.769494533538818,-8.279166221618652,5.522634029388428,-2.192941665649414,-1.485580563545227,-3.216721534729004,#
7.769494533538818,-8.279166221618652,5.522634029388428,-1.9363857507705688,-1.5845377445220947,-3.089665412902832,#
8.702695846557617,-9.22433090209961,5.484349250793457,-1.6529526710510254,-1.6077499389648438,-2.993151426315308,#
9.384650230407717,-9.96131992340088,4.790431022644043,-1.1398409605026243,-1.5161229372024536,-2.643746852874756,#
9.647860527038574,-9.863215446472168,4.060619831085205,-1.0592091083526611,-1.3805147409439087,-2.3713088035583496,#
9.609575271606444,-10.090532302856444,3.8261232376098633,-0.9639169573783876,-1.3011046648025513,-2.332214832305908,#
10.00439167022705,-9.726823806762695,4.012763977050781,-0.577861487865448,-1.1166287660598757,-2.3395450115203857,#
10.00439167022705,-9.726823806762695,4.012763977050781,-0.2235700935125351,-1.0042328834533691,-2.2442526817321777,#
10.511670112609863,-9.535398483276367,4.077369689941406,-0.1429382413625717,-0.9700254201889038,-2.1623992919921875,#
10.607381820678713,-8.83669376373291,3.7902309894561768,-0.1612636744976043,-0.818535327911377,-1.8606407642364504,#
10.092925071716309,-8.250452041625977,3.488735675811768,-0.175924003124237,-0.5583143830299377,-1.469698429107666,#
9.286543846130373,-7.640282154083252,3.2757742404937744,-0.1392731666564941,-0.4202629029750824,-1.2876659631729126,#
9.286543846130373,-7.640282154083252,3.2757742404937744,-0.0329857505857944,-0.2467822879552841,-0.9529216885566713,#
8.858229637145996,-7.546962738037109,3.2518460750579834,0.0476460866630077,-0.21135313808918,-0.8050966858863831,#
8.786444664001465,-7.628318786621094,3.433700561523437,0.1685938388109207,-0.1832541674375534,-0.5131116509437561,#
8.807979583740234,-7.027719974517822,3.622733592987061,0.282211422920227,-0.1966928243637085,-0.2418954968452453,#
8.609375953674316,-6.302694320678711,3.433700561523437,0.342074453830719,-0.175924003124237,-0.1392731666564941,#
8.291130065917969,-6.302694320678711,3.3092737197875977,0.4275930821895599,-0.0684148892760276,0.0439810007810592,#
8.291130065917969,-6.302694320678711,3.3092737197875977,0.4263713657855987,0.0354291386902332,0.1942494213581085,#
8.090132713317871,-7.15932559967041,3.077169895172119,0.4068242609500885,0.0745233595371246,0.2504473626613617,#
8.228917121887207,-7.635497093200684,3.438485860824585,0.3603998720645904,0.0989572554826736,0.3396310806274414,#
8.097311973571777,-8.530412673950195,3.38823676109314,0.4337015450000763,0.1185043603181839,0.3738385140895843,#
8.102097511291504,-8.767301559448242,3.1441688537597656,0.601073682308197,0.2382304221391677,0.463022232055664,#
8.102097511291504,-8.767301559448242,3.1441688537597656,0.4434750974178314,0.2736595571041107,0.6755970120429993,#
8.202595710754395,-9.18843936920166,2.651247262954712,0.2932066619396209,0.2638860046863556,0.7977665066719055,#
8.449056625366211,-9.743573188781738,2.227717876434326,-0.1026223376393318,0.2296785563230514,1.100746750831604,#
8.666803359985352,-10.521241188049316,1.964507341384888,-0.4092676639556885,0.1820324808359146,1.4599249362945557,#
8.870193481445312,-11.772686958312988,2.177468776702881,-0.3811686933040619,0.1685938388109207,1.6175235509872437,#
8.870193481445312,-11.772686958312988,2.177468776702881,-0.1258345395326614,0.1417165547609329,2.004800796508789,#
9.131011009216309,-12.50010585784912,2.368894338607788,0.0390942245721817,0.1197260618209838,2.260134696960449,#
9.4061861038208,-13.435699462890623,1.947757601737976,0.3982723951339721,0.0195471122860908,2.6865062713623047,#
10.12881851196289,-14.529218673706056,2.031506299972534,1.187487006187439,-0.1368297785520553,2.978491306304932,#
10.695917129516602,-17.111074447631836,2.304288148880005,1.9974703788757324,-0.2504473626613617,3.0933306217193604,#
10.930414199829102,-16.79522132873535,2.3976082801818848,4.466515064239502,-0.3078669905662536,3.249707221984864,#
10.930414199829102,-16.79522132873535,2.3976082801818848,7.173789978027344,-0.0390942245721817,3.4598388671875,#
11.00459098815918,-13.978869438171388,3.077169895172119,8.56163501739502,0.1270562261343002,3.5160367488861084,#
10.62413215637207,-9.891928672790527,4.29033088684082,11.267687797546388,0.6365028619766235,3.478163957595825,#
9.535398483276367,-5.333601474761963,2.2995026111602783,13.037922859191896,1.5772075653076172,3.2216084003448486,#
7.049255847930908,-0.784845769405365,0.3349951505661011,13.321356773376465,2.104979515075684,2.9919300079345703,#
7.049255847930908,-0.784845769405365,0.3349951505661011,12.916975021362305,3.480607748031616,2.5179123878479004,#
4.153940200805664,4.948357105255127,1.6295121908187866,11.722159385681152,3.9179742336273193,2.5472328662872314,#
2.1894328594207764,5.589633941650391,3.541377305984497,8.235442161560059,3.8092432022094727,2.635195016860962,#
2.89052963256836,2.900100946426392,4.247260093688965,5.382786273956299,3.3046836853027344,2.239366054534912,#
3.6370904445648193,1.0217353105545044,4.333401679992676,4.102449893951416,3.057901382446289,2.070772171020508,#
2.912065029144287,0.7704889178276062,5.178067684173584,2.7317090034484863,2.6571855545043945,1.940050840377808,#
2.912065029144287,0.7704889178276062,5.178067684173584,2.569223642349243,2.3016724586486816,2.058555126190185,#
1.964507341384888,1.0289137363433838,5.5968122482299805,2.664515733718872,2.148960590362549,2.074437141418457,#
1.871187210083008,1.368694543838501,5.099104881286621,2.725600242614746,1.7848955392837524,1.830098390579224,#
1.9070796966552728,2.076970100402832,4.5583271980285645,2.7317090034484863,1.5674339532852173,1.437934398651123,#
1.5122638940811155,2.995814085006714,4.127618789672852,2.728043794631958,1.2632319927215576,1.3194299936294556,#
1.5122638940811155,2.995814085006714,4.127618789672852,2.5215773582458496,1.1068552732467651,1.2106993198394775,#
1.2586246728897097,4.02472734451294,4.570291519165039,2.284568548202514,1.0262233018875122,1.2082558870315552,#
1.062413215637207,3.873979806900024,5.491527557373047,1.6859383583068848,0.8857284784317017,1.1312891244888306,#
0.9427721500396729,3.862015962600708,6.16391134262085,1.3120999336242676,0.818535327911377,0.9920158982276917,#
0.6221339106559753,4.543970108032227,6.070591449737549,1.1740483045578003,0.7476770281791687,0.9358179569244384,#
0.6221339106559753,4.543970108032227,6.070591449737549,1.1117420196533203,0.6108472347259521,0.8209787011146545,#
0.4809573292732239,5.472385883331299,5.539384365081787,1.0103412866592407,0.5204418301582336,0.7721109390258789,#
0.430708110332489,6.027520179748535,5.434100151062012,0.7354600429534912,0.388498842716217,0.6511631608009338,#
0.6604190468788147,5.814558982849121,6.295516490936279,0.1808107793331146,0.3017585575580597,0.5570926666259766,#
0.818345308303833,4.845465660095215,7.042076587677002,-0.0280989725142717,0.287098228931427,0.522885262966156,#
0.6029912829399109,5.228317260742188,7.412964344024658,-0.1832541674375534,0.2993151545524597,0.388498842716217,#
0.6029912829399109,5.228317260742188,7.412964344024658,-0.0610847249627113,0.2773246467113495,0.3261924386024475,#
0.4498506784439087,5.37906551361084,7.491927623748779,-0.007330167107284,0.2553341388702392,0.310310423374176,#
0.3900300860404968,5.410171985626221,7.561319828033447,0.152711808681488,0.2333436459302902,0.2638860046863556,#
0.2488535493612289,5.623133182525635,7.501499176025391,0.2663294076919555,0.2150182276964187,0.2394521236419677,#
0.1339980661869049,5.709274768829346,7.434500217437744,0.2455605864524841,0.199136197566986,0.2418954968452453,#
0.1339980661869049,5.709274768829346,7.434500217437744,0.1673721522092819,0.1869192570447921,0.199136197566986,#
-0.0478564500808715,5.9198431968688965,7.334001541137695,0.1185043603181839,0.1820324808359146,0.1820324808359146,#
-0.2321037948131561,5.946164608001709,7.185646057128906,0.0256555844098329,0.1661504507064819,0.178367406129837,#
-0.3038884699344635,5.843273162841797,7.044469833374023,0.031764056533575,0.1563768982887268,0.1673721522092819,#
-0.2321037948131561,5.864808082580566,7.018148422241211,0.0525328628718853,0.1380514800548553,0.1600419729948043,#
-0.0861416235566139,6.204589366912842,7.099504470825195,0.1014006435871124,0.0769667476415634,0.129499614238739,#
-0.0861416235566139,6.204589366912842,7.099504470825195,0.0586413368582725,0.0158820282667875,0.1160609796643257,#
0.0167497582733631,6.300302028656006,7.264609336853027,0.0024433890357613,0.0012216945178806,0.1123958900570869,#
0.1363908797502517,6.180660724639893,7.17368221282959,-0.0977355539798736,-0.0244338884949684,0.0940704718232154,#
0.3708875179290771,5.982056617736816,7.176074504852295,-0.1404948681592941,-0.0452026948332786,0.0659715011715889,#
0.4689932465553283,5.905486583709717,7.195217609405518,-0.1747023165225982,-0.0818535313010215,-0.0109952501952648,#
0.4689932465553283,5.905486583709717,7.195217609405518,-0.152711808681488,-0.0977355539798736,-0.0867403075098991,#
0.5096712112426758,5.862415313720703,7.15932559967041,-0.1698155403137207,-0.1123958900570869,-0.1148392781615257,#
0.5048855543136597,5.938986301422119,6.903293132781982,-0.2993151545524597,-0.1197260618209838,-0.178367406129837,#
0.6675975918769836,5.742774486541748,6.563512325286865,-0.5436540246009827,-0.1514901220798492,-0.2602209150791168,#
0.7010970115661621,5.608776092529297,6.147161483764648,-0.6988092660903931,-0.1722589135169983,-0.3127537965774536,#
0.7010970115661621,5.608776092529297,6.147161483764648,-1.1129636764526367,-0.2150182276964187,-0.4446967840194702,#
0.7680960297584534,5.113461971282959,5.43170690536499,-1.3780713081359863,-0.2467822879552841,-0.517998456954956,#
0.8135597109794617,4.591826438903809,4.570291519165039,-2.1575124263763428,-0.3042019307613373,-0.7146912813186646,#
1.0217353105545044,4.046263217926025,3.670589685440064,-3.233825206756592,-0.3726168274879455,-0.9846857786178588,#
1.5026925802230835,3.4815566539764404,3.2374887466430664,-3.89842700958252,-0.411711037158966,-1.1386191844940186,#
2.2947168350219727,3.4815566539764404,4.445864677429199,-5.512285232543945,-0.554649293422699,-1.4318259954452517,#
2.2947168350219727,3.4815566539764404,4.445864677429199,-7.435232639312744,-0.6365028619766235,-1.6896034479141235,#
3.079562902450561,2.617748022079468,5.989234924316406,-8.258654594421387,-0.5399889945983887,-1.863084077835083,#
3.905086755752564,1.0552347898483276,8.37727165222168,-9.453471183776855,-0.1563768982887268,-2.2430310249328613,#
4.809573650360107,-2.3880369663238525,9.482755661010742,-9.466910362243652,0.2150182276964187,-2.6132044792175293,#
5.950949668884277,-4.366901397705078,10.01874828338623,-9.149270057678224,0.3188622593879699,-2.71460509300232,#
5.950949668884277,-4.366901397705078,10.01874828338623,-9.09185028076172,0.7134696245193481,-2.8013453483581543,#
5.745166778564453,-5.101497650146484,9.11426067352295,-8.975789070129395,1.1386191844940186,-2.886864185333252,#
4.620540142059326,-5.776273727416992,7.020541667938232,-8.086396217346191,2.08665418624878,-3.064009666442871,#
4.587040901184082,-9.573683738708496,6.453442573547363,-6.196434497833252,2.5875487327575684,-2.973604440689087,#
4.675575256347656,-10.372885704040527,7.156932830810547,-5.142112255096436,2.5411245822906494,-2.675510883331299,#
3.687339782714844,-10.284351348876951,6.790830135345459,-4.580132484436035,2.728043794631958,-2.1733944416046143,#
3.687339782714844,-10.284351348876951,6.790830135345459,-4.520269393920898,3.3425562381744385,-2.326106309890747,#
3.0963122844696045,-12.435498237609863,4.512863159179688,-4.168421268463135,3.555130958557129,-2.3419883251190186,#
3.594019651412964,-15.495919227600098,3.404986619949341,-3.1226511001586914,3.610107183456421,-2.2027151584625244,#
2.2013967037200928,-14.512468338012695,2.8426735401153564,-2.4519410133361816,3.683408975601196,-2.100092887878418,#
0.1579262912273407,-11.885149955749512,2.7182462215423584,-1.3328686952590942,4.19529914855957,-2.039008140563965,#
0.1579262912273407,-11.885149955749512,2.7182462215423584,-0.574196457862854,4.661985874176025,-2.0695505142211914,#
-1.294516921043396,-11.447263717651367,1.8113667964935305,0.4214845895767212,4.743839740753174,-1.9046216011047363,#
-1.0169496536254885,-11.12901782989502,1.3902300596237185,0.8270871639251709,4.635108470916748,-1.9143953323364256,#
-0.4331009089946747,-8.865407943725586,-1.7515461444854736,0.8906152844429016,4.599679470062256,-1.9974703788757324,#
-0.4331009089946747,-8.865407943725586,-1.7515461444854736,0.3200839459896087,4.36877965927124,-2.068328857421875,#
-0.519242525100708,-9.841679573059082,-1.7204395532608032,-0.2296785563230514,4.211181163787842,-2.007244110107422,#
1.3998013734817505,-12.63888931274414,-3.3092737197875977,-1.6834949254989624,3.922861099243164,-1.7775654792785645,#
2.5866410732269287,-14.50050449371338,-7.068397998809815,-2.2747950553894043,3.638206243515015,-1.4367127418518066,#
2.2229323387146,-14.246865272521973,-11.258230209350586,-2.4323935508728027,3.364546537399292,-1.2510151863098145,#
3.268595933914185,-13.677373886108398,-13.5242338180542,-2.872203826904297,2.690171241760254,-0.7647807598114014,#
3.268595933914185,-13.677373886108398,-13.5242338180542,-3.248485803604126,1.7030421495437622,-0.3481829464435577,#
4.749752521514893,-13.531413078308104,-14.055439949035645,-3.140976428985596,1.1569446325302124,-0.2199050188064575,#
5.938986301422119,-12.90927791595459,-13.201202392578123,-2.7671380043029785,-0.0415376126766204,-0.0806318372488021,#
6.570690631866455,-11.832507133483888,-13.569696426391602,-2.1648426055908203,-1.385401487350464,-0.0048867780715227,left
7.432106971740723,-11.99761199951172,-13.83290672302246,-1.907065153121948,-2.0842106342315674,-0.0171037223190069,left
7.432106971740723,-11.99761199951172,-13.83290672302246,-1.580872654914856,-3.546579122543335,-0.0574196390807628,left
8.941977500915527,-12.179466247558594,-12.854243278503418,-1.400061845779419,-4.209959030151367,-0.0818535313010215,left
10.942378044128418,-12.674781799316406,-10.48534870147705,-0.919935941696167,-5.515950202941895,-0.2296785563230514,left
13.478769302368164,-12.787243843078612,-8.683552742004395,-0.5754181146621704,-6.71076774597168,-0.3017585575580597,left
15.476776123046877,-13.686945915222168,-4.036691665649414,-0.6047387719154358,-7.299624443054199,-0.2480039745569229,left
15.476776123046877,-13.686945915222168,-4.036691665649414,-0.7928797006607056,-8.543309211730957,-0.2785463333129883,left
16.441083908081055,-13.588839530944824,3.359522819519043,-0.9834640026092528,-9.74912166595459,-0.5045598149299622,left
15.431313514709473,-13.095918655395508,11.782258987426758,-1.123958945274353,-10.191375732421877,-0.6975875496864319,left
11.169696807861328,-11.643473625183104,11.815757751464844,-1.480693817138672,-10.401506423950195,-0.919935941696167,left
3.2542388439178467,-11.600403785705566,-1.0504491329193115,-1.7250326871871948,-9.90794277191162,-0.8710681796073914,left
0.5551348924636841,-12.035898208618164,-21.059232711791992,-1.6114150285720823,-7.8848161697387695,-0.5851916074752808,left
0.5551348924636841,-12.035898208618164,-21.059232711791992,-0.5705313086509705,-7.425458908081055,-0.1575985848903656,left
12.509675979614258,-14.289936065673828,-12.775279998779297,0.3848337531089782,-8.895157814025879,0.6438329815864563,left
19.36750602722168,-9.150154113769531,-1.947757601737976,0.3090887069702148,-10.259790420532228,2.0927627086639404,left
13.564910888671877,-14.608181953430176,5.962913990020752,0.6633800864219666,-6.842710971832275,0.1514901220798492,left
9.55214786529541,-16.15873146057129,8.441878318786621,0.4556920528411865,-5.414549827575684,0.3396310806274414,left
9.55214786529541,-16.15873146057129,8.441878318786621,0.2052446752786636,-3.859333038330078,0.8710681796073914,left
8.693124771118164,-12.720245361328123,8.367700576782227,0.7843278050422668,-3.4439568519592285,0.9064972996711732,left
8.228917121887207,-5.716453552246094,7.855636119842529,1.810551166534424,-2.675510883331299,1.202147364616394,#
5.56331205368042,-3.4241292476654053,6.774080753326416,1.6211885213851929,-1.5772075653076172,0.9272661209106444,#
2.854637384414673,-3.907479047775269,5.359922409057617,1.5161229372024536,-0.9944592714309692,0.707361102104187,#
1.6247265338897705,-5.513063907623291,3.5820553302764893,1.007897973060608,-0.1588202863931656,0.4923428893089294,#
1.6247265338897705,-5.513063907623291,3.5820553302764893,0.7696675062179565,0.0195471122860908,0.3005368411540985,#
2.1415762901306152,-6.809973239898682,2.256431579589844,0.7330166697502136,0.003665083553642,0.2174616158008575,#
2.6392831802368164,-5.687739372253418,1.227518081665039,0.7110261917114258,0.0525328628718853,0.0085518611595034,#
2.148754596710205,-4.706681728363037,-0.2249253392219543,0.5509842038154602,0.2785463333129883,-0.2382304221391677,#
1.6462620496749878,-4.759324073791504,-1.1509476900100708,0.3359659910202026,0.813648521900177,-0.3775035738945007,#
1.6462620496749878,-4.759324073791504,-1.1509476900100708,-0.0684148892760276,1.099524974822998,-0.6633800864219666,#
1.5936198234558103,-5.32403039932251,-1.3663017749786377,-0.2199050188064575,1.1593880653381348,-0.7928797006607056,#
1.4668002128601074,-5.50349235534668,-1.0552347898483276,-0.2773246467113495,1.2974395751953125,-1.0408836603164673,#
1.497907042503357,-5.642275810241699,-1.241874933242798,-0.0012216945178806,1.5161229372024536,-1.3719629049301147,#
1.9764715433120728,-5.491527557373047,-1.7754744291305542,0.1905843466520309,1.5759859085083008,-1.5857594013214111,#
1.9764715433120728,-5.491527557373047,-1.7754744291305542,0.129499614238739,1.7396929264068604,-1.94249427318573,#
2.715853452682495,-6.9583282470703125,-2.438286304473877,-0.0280989725142717,1.7800087928771973,-2.1074230670928955,#
3.168097257614136,-8.164310455322266,-2.03629207611084,-0.152711808681488,1.8191031217575075,-2.423841953277588,#
3.25663161277771,-7.716853141784668,-0.9044869542121888,0.0659715011715889,2.019460916519165,-2.817227363586426,#
3.76151704788208,-8.863015174865723,-0.0454636327922344,0.3677300214767456,2.172172784805298,-3.029802322387696,#
5.101497650146484,-7.123432636260986,1.1868400573730469,1.189930438995361,2.360313892364502,-3.429296493530273,#
5.101497650146484,-7.123432636260986,1.1868400573730469,0.4324798583984375,2.4751532077789307,-3.607663869857788,#
6.154339790344238,-6.97986364364624,1.636690616607666,-0.0623064190149307,2.586327314376831,-3.775036096572876,#
7.274180889129639,-8.575876235961914,4.90528678894043,-1.0702043771743774,2.872203826904297,-4.013266086578369,#
8.757731437683105,-11.423335075378418,7.77906608581543,-1.30476975440979,3.123872995376587,-4.239279747009277,#
9.90867805480957,-11.265408515930176,6.178267955780029,-0.9920158982276917,3.332782745361328,-4.286925792694092,#
9.90867805480957,-11.265408515930176,6.178267955780029,-0.8845068216323853,3.871549844741821,-4.326020240783691,#
10.437491416931152,-9.351150512695312,3.012563943862915,-1.1569446325302124,4.173308372497559,-4.3871049880981445,#
10.97348403930664,-13.232309341430664,0.8111668825149536,-1.401283621788025,4.610674858093262,-4.615561485290527,#
12.16032600402832,-16.673187255859375,2.1439690589904785,-1.4183871746063232,4.721848964691162,-4.326020240783691,#
13.02652645111084,-18.221343994140625,2.1607186794281006,-1.2546802759170532,4.780490398406982,-4.185525417327881,#
13.87358570098877,-16.658832550048828,1.043270707130432,-0.1905843466520309,5.164103031158447,-4.036478519439697,#
13.87358570098877,-16.658832550048828,1.043270707130432,-0.235787034034729,5.168989658355713,-3.5453574657440186,#
15.04128360748291,-17.749958038330078,0.8255237936973572,-0.8661814332008362,5.266724586486816,-3.060344696044922,#
14.07458209991455,-19.066011428833008,1.6079767942428589,-2.238144397735596,5.754181385040283,-2.0243477821350098,#
11.880364418029783,-19.377077102661133,0.906879723072052,-2.5814404487609863,5.942322254180908,-1.4489295482635498,#
10.447062492370604,-17.57049560546875,0.064606212079525,-2.4983651638031006,5.611242771148682,-0.1380514800548553,#
10.447062492370604,-17.57049560546875,0.064606212079525,-2.233257532119751,4.986956596374512,1.30476975440979,#
8.810372352600098,-13.225130081176758,-1.9908283948898315,-2.170951128005981,4.691306591033936,1.8533105850219729,#
6.570690631866455,-11.17926788330078,-2.919243574142456,-2.070772171020508,4.211181163787842,2.4336154460906982,#
4.862215518951416,-10.77488136291504,-2.3784656524658203,-1.6993770599365234,3.914309024810791,2.8013453483581543,#
4.510470867156982,-8.9850492477417,-2.950350284576416,-1.435490965843201,3.658974885940552,2.965052604675293,#
4.510470867156982,-8.9850492477417,-2.950350284576416,-1.0188932418823242,3.1812922954559326,3.081113338470459,#
3.933800458908081,-7.202396392822266,-3.627518892288208,-0.7831061482429504,2.7842416763305664,2.954057216644287,#
3.1274189949035645,-6.221338748931885,-4.005585193634033,-0.7452336549758911,2.55089807510376,2.883198976516724,#
2.888136863708496,-6.10169792175293,-3.022134780883789,-0.8661814332008362,2.021904230117798,2.754921197891236,#
3.0484561920166016,-6.27876615524292,-2.447857618331909,-0.8356390595436096,1.7910041809082031,2.6742892265319824,#
3.421736478805542,-6.589833736419678,-2.3234307765960693,-0.8393040895462036,1.2876659631729126,2.4751532077789307,#
3.421736478805542,-6.589833736419678,-2.3234307765960693,-0.9321528673171996,0.8551861643791199,2.2894556522369385,#
3.672982692718506,-7.317252159118652,-2.069791555404663,-1.0298885107040403,0.624285876750946,2.190498352050781,#
3.555734634399414,-7.357929229736328,-2.6009981632232666,-1.0714260339736938,0.2858764827251434,1.955932855606079,#
3.13938307762146,-6.673582077026367,-3.0963122844696045,-1.2265812158584597,-0.1172826737165451,1.747023105621338,#
3.06999135017395,-7.223931312561035,-3.682554006576538,-1.397618532180786,-0.3494046330451965,1.6468441486358645,#
3.06999135017395,-7.223931312561035,-3.682554006576538,-1.8142162561416624,-0.9223793148994446,1.485580563545227,#
2.830709218978882,-7.946564197540283,-5.517848491668701,-1.8936264514923096,-1.211920976638794,1.4073920249938965,#
2.411965131759644,-8.6907320022583,-7.458428382873535,-2.0182392597198486,-1.7922258377075195,1.2106993198394775,left
2.565105676651001,-8.96112060546875,-8.484949111938477,-2.1367435455322266,-2.351761817932129,0.9602518677711488,left
4.278366565704346,-10.63370418548584,-7.006184577941895,-2.288233757019043,-2.698723077774048,0.8173136115074158,left
4.278366565704346,-10.63370418548584,-7.006184577941895,-2.363978862762451,-3.5111501216888428,0.5387672781944275,left
6.506085395812988,-12.361321449279783,-5.704488754272461,-2.7097182273864746,-4.355340957641602,0.4019374847412109,left
8.12841796875,-13.44766330718994,-5.386244297027588,-2.960165739059448,-4.80736780166626,0.3408527672290802,left
9.745966911315918,-13.947763442993164,-3.998406410217285,-3.544135808944702,-5.746850967407227,0.1918060332536697,left
11.32522964477539,-14.036296844482422,-1.65583336353302,-3.790918111801148,-6.225755214691162,0.0769667476415634,left
12.224931716918944,-14.428720474243164,4.766502857208252,-4.5752458572387695,-7.144469738006592,-0.1808107793331146,left
12.224931716918944,-14.428720474243164,4.766502857208252,-5.134781837463379,-7.971556663513184,-0.6071821451187134,left
10.097711563110352,-12.863814353942873,8.681159973144531,-5.012612342834473,-8.162140846252441,-1.0017894506454468,left
4.625326156616211,-15.608383178710938,5.520241737365723,-4.330906867980957,-7.76386833190918,-1.6236319541931152,left
-2.7086753845214844,-18.455841064453125,-4.72582483291626,-2.9149630069732666,-7.15179967880249,-1.5662122964859009,left
-0.0693918615579605,-19.86999893188477,-14.411970138549805,-2.310224294662476,-6.939224720001221,-1.446486234664917,left
-0.0693918615579605,-19.86999893188477,-14.411970138549805,-0.7623373866081238,-8.130376815795898,-0.5998519659042358,left
17.417356491088867,-15.218351364135742,-5.8959150314331055,-0.0635281130671501,-9.784551620483398,0.6499415040016174,left
