accX,accY,accZ,gyrX,gyrY,gyrZ,annotation
8.874979019165039,-4.158725738525391,-0.4331009089946747,-0.1429382413625717,0.0586413368582725,-0.0366508327424526,#
8.874979019165039,-4.158725738525391,-0.4331009089946747,-0.1453816443681717,0.0623064190149307,-0.0464243926107883,#
8.901299476623535,-4.208974838256836,-0.430708110332489,-0.1575985848903656,0.069636583328247,-0.0671931952238082,#
8.894121170043945,-4.201796531677246,-0.4067798554897308,-0.1710372269153595,0.0794101431965828,-0.0830752253532409,#
8.82951545715332,-4.304687976837158,-0.4043869972229004,-0.1722589135169983,0.0806318372488021,-0.0904053896665573,#
8.855835914611816,-4.35972261428833,-0.4522434771060943,-0.1649287492036819,0.0806318372488021,-0.1026223376393318,#
8.831908226013184,-4.4027934074401855,-0.413958340883255,-0.152711808681488,0.0818535313010215,-0.1099525094032287,#
8.831908226013184,-4.4027934074401855,-0.413958340883255,-0.1466033309698104,0.0806318372488021,-0.1148392781615257,#
8.874979019165039,-4.354937553405762,-0.4426721632480621,-0.1343863904476165,0.0757450610399246,-0.1258345395326614,#
8.886943817138672,-4.498506546020508,-0.4474578499794006,-0.1185043603181839,0.0684148892760276,-0.1331647038459777,#
8.858229637145996,-4.510470867156982,-0.3852444589138031,-0.1111741960048675,0.0671931952238082,-0.1368297785520553,#
8.863015174865723,-4.481756687164307,-0.4283152520656585,-0.0989572554826736,0.0598630309104919,-0.1356080919504165,#
8.863015174865723,-4.481756687164307,-0.4283152520656585,-0.0965138673782348,0.0586413368582725,-0.1343863904476165,#
8.886943817138672,-4.599005222320557,-0.4259224236011505,-0.0879620015621185,0.0586413368582725,-0.129499614238739,#
8.891729354858398,-4.543970108032227,-0.4498506784439087,-0.0745233595371246,0.0561979450285434,-0.123391143977642,#
8.824729919433594,-4.560719966888428,-0.4929214715957641,-0.0708582773804664,0.0537545569241046,-0.1209477484226226,#
8.910871505737305,-4.59421968460083,-0.5383850932121277,-0.0586413368582725,0.040315918624401,-0.1099525094032287,#
8.834300994873047,-4.5583271980285645,-0.4953142702579498,-0.0427593067288398,0.0280989725142717,-0.0977355539798736,#
8.834300994873047,-4.5583271980285645,-0.4953142702579498,-0.031764056533575,0.0232121963053941,-0.0916270837187767,#
8.879764556884766,-4.577469348907471,-0.4378865361213684,-0.0109952501952648,0.0158820282667875,-0.0781884491443634,#
8.841480255126953,-4.553541660308838,-0.5024927258491516,-0.0024433890357613,0.0109952501952648,-0.069636583328247,#
8.805586814880371,-4.589433670043945,-0.4929214715957641,0.007330167107284,0.003665083553642,-0.0525328628718853,#
8.930014610290527,-4.503292083740234,-0.5551348924636841,0.0146603342145681,-0.0085518611595034,-0.0329857505857944,#
8.930014610290527,-4.503292083740234,-0.5551348924636841,0.0207688063383102,-0.0158820282667875,-0.0244338884949684,#
8.882158279418945,-4.517649173736572,-0.5718846321105957,0.0329857505857944,-0.0219905003905296,-0.0109952501952648,#
8.817551612854004,-4.49132776260376,-0.5240281224250793,0.0500894747674465,-0.0354291386902332,-0.0024433890357613,#
8.968299865722656,-4.460221290588379,-0.5910272002220154,0.0574196390807628,-0.0415376126766204,0.0024433890357613,#
8.798408508300781,-4.426721572875977,-0.519242525100708,0.0671931952238082,-0.0525328628718853,0.0122169442474842,#
8.798408508300781,-4.426721572875977,-0.519242525100708,0.0794101431965828,-0.0623064190149307,0.0207688063383102,#
8.889336585998535,-4.35972261428833,-0.5647061467170715,0.0842969194054603,-0.0684148892760276,0.0244338884949684,#
8.956335067749023,-4.383650779724121,-0.5503491759300232,0.0904053896665573,-0.0733016654849052,0.0354291386902332,#
8.958727836608887,-4.371686935424805,-0.4666004180908203,0.0904053896665573,-0.0720799788832664,0.040315918624401,#
9.023333549499512,-4.362115383148193,-0.5766702890396118,0.0867403075098991,-0.0757450610399246,0.0500894747674465,#
8.949156761169434,-4.285545349121094,-0.4642075896263122,0.0855186134576797,-0.0757450610399246,0.0574196390807628,#
8.949156761169434,-4.285545349121094,-0.4642075896263122,0.0855186134576797,-0.0769667476415634,0.0635281130671501,#
8.910871505737305,-4.29750919342041,-0.4618147313594818,0.0940704718232154,-0.0806318372488021,0.0733016654849052,#
8.939584732055664,-4.201796531677246,-0.5072783827781677,0.0965138673782348,-0.0904053896665573,0.0830752253532409,#
9.03290557861328,-4.144368648529053,-0.5024927258491516,0.0940704718232154,-0.0928487852215766,0.0867403075098991,#
9.075976371765137,-4.146761417388916,-0.4570291042327881,0.0842969194054603,-0.0842969194054603,0.0842969194054603,#
9.075976371765137,-4.146761417388916,-0.4570291042327881,0.0794101431965828,-0.0794101431965828,0.0806318372488021,#
8.949156761169434,-4.115654945373535,-0.4498506784439087,0.0745233595371246,-0.0733016654849052,0.069636583328247,#
8.939584732055664,-4.036691665649414,-0.4259224236011505,0.0647498071193695,-0.0708582773804664,0.0598630309104919,#
8.882158279418945,-4.082155227661133,-0.4331009089946747,0.0586413368582725,-0.069636583328247,0.0561979450285434,#
8.86780071258545,-4.07258415222168,-0.4091726541519165,0.0513111688196659,-0.0623064190149307,0.0537545569241046,#
8.944371223449707,-4.108476161956787,-0.4091726541519165,0.0525328628718853,-0.0574196390807628,0.0464243926107883,#
8.944371223449707,-4.108476161956787,-0.4091726541519165,0.0525328628718853,-0.0537545569241046,0.0415376126766204,#
8.934800148010254,-4.048655986785889,-0.4067798554897308,0.0464243926107883,-0.0415376126766204,0.031764056533575,#
8.968299865722656,-4.02472734451294,-0.4283152520656585,0.0293206684291362,-0.031764056533575,0.0171037223190069,#
8.920442581176758,-4.0797624588012695,-0.4618147313594818,0.0183254163712263,-0.0280989725142717,0.0109952501952648,#
8.96112060546875,-4.086941242218018,-0.4331009089946747,0.0183254163712263,-0.0195471122860908,0.0012216945178806,#
8.96112060546875,-4.086941242218018,-0.4331009089946747,-0.0048867780715227,-0.0134386392310261,-0.003665083553642,#
8.925228118896484,-4.118047714233398,-0.430708110332489,-0.007330167107284,-0.0061084721237421,-0.0085518611595034,#
9.023333549499512,-4.094119548797607,-0.4402793645858764,-0.0219905003905296,-0.0061084721237421,-0.0109952501952648,#
8.958727836608887,-4.201796531677246,-0.4450649619102478,-0.0244338884949684,0.003665083553642,-0.0158820282667875,#
8.987441062927246,-4.156332969665527,-0.4642075896263122,-0.0293206684291362,0.0097735561430454,-0.0195471122860908,#
8.987441062927246,-4.156332969665527,-0.4642075896263122,-0.0305423624813556,0.0134386392310261,-0.0256555844098329,#
9.044869422912598,-4.151546955108643,-0.4450649619102478,-0.0415376126766204,0.0171037223190069,-0.0268772784620523,#
8.96112060546875,-4.208974838256836,-0.4331009089946747,-0.0513111688196659,0.0244338884949684,-0.0305423624813556,#
8.95394229888916,-4.242474555969238,-0.413958340883255,-0.0537545569241046,0.0280989725142717,-0.0305423624813556,#
8.877371788024902,-4.170689582824707,-0.4953142702579498,-0.0574196390807628,0.0329857505857944,-0.0354291386902332,#
8.994620323181152,-4.192224979400635,-0.4498506784439087,-0.0647498071193695,0.0415376126766204,-0.040315918624401,#
8.994620323181152,-4.192224979400635,-0.4498506784439087,-0.0647498071193695,0.0427593067288398,-0.0415376126766204,#
8.855835914611816,-4.256831645965576,-0.5838487148284912,-0.0623064190149307,0.040315918624401,-0.0439810007810592,#
8.817551612854004,-4.254438400268555,-0.5288137793540955,-0.0647498071193695,0.0390942245721817,-0.0452026948332786,#
8.894121170043945,-4.242474555969238,-0.6005984544754028,-0.0623064190149307,0.0378725305199623,-0.0476460866630077,#
8.908478736877441,-4.25922441482544,-0.672383189201355,-0.0574196390807628,0.0342074446380138,-0.0500894747674465,#
8.908478736877441,-4.25922441482544,-0.672383189201355,-0.0513111688196659,0.031764056533575,-0.0525328628718853,#
8.886943817138672,-4.278366565704346,-0.5766702890396118,-0.0513111688196659,0.0293206684291362,-0.0513111688196659,#
8.863015174865723,-4.230510234832764,-0.5479563474655151,-0.0659715011715889,0.0256555844098329,-0.0500894747674465,#
8.965906143188477,-4.321437358856201,-0.5742774605751038,-0.0818535313010215,0.0244338884949684,-0.0500894747674465,#
8.918049812316895,-4.376472473144531,-0.4953142702579498,-0.100178949534893,0.0354291386902332,-0.040315918624401,#
8.855835914611816,-4.431507587432861,-0.5359922647476196,-0.100178949534893,0.0354291386902332,-0.0293206684291362,#
8.855835914611816,-4.431507587432861,-0.5359922647476196,-0.0842969194054603,0.0293206684291362,-0.0244338884949684,#
8.855835914611816,-4.412364959716797,-0.6125625967979431,-0.0366508327424526,0.0097735561430454,-0.0158820282667875,#
8.915657043457031,-4.354937553405762,-0.5958128571510315,-0.0171037223190069,-0.0012216945178806,-0.0158820282667875,#
8.949156761169434,-4.328616142272949,-0.5551348924636841,0.0024433890357613,-0.0171037223190069,-0.0207688063383102,#
8.980262756347656,-4.350151538848877,-0.5934200286865234,0.0061084721237421,-0.0207688063383102,-0.0280989725142717,#
8.980262756347656,-4.350151538848877,-0.5934200286865234,0.007330167107284,-0.0232121963053941,-0.0305423624813556,#
8.927621841430664,-4.319044589996338,-0.552742063999176,0.0122169442474842,-0.0293206684291362,-0.0293206684291362,#
8.908478736877441,-4.388436794281006,-0.4618147313594818,0.0329857505857944,-0.0293206684291362,-0.0219905003905296,#
8.908478736877441,-4.326223373413086,-0.4259224236011505,0.0427593067288398,-0.0293206684291362,-0.0158820282667875,#
8.884550094604492,-4.299902439117432,-0.4689932465553283,0.0439810007810592,-0.0268772784620523,-0.0012216945178806,#
8.884550094604492,-4.299902439117432,-0.4689932465553283,0.0232121963053941,-0.0293206684291362,0.0158820282667875,#
9.042476654052734,-4.228117942810059,-0.5312066078186035,0.0195471122860908,-0.0109952501952648,0.0280989725142717,#
9.023333549499512,-4.268795490264893,-0.4929214715957641,0.0061084721237421,-0.0134386392310261,0.0171037223190069,#
8.98265552520752,-4.273581027984619,-0.5096712112426758,0.0134386392310261,-0.0183254163712263,0.007330167107284,#
9.07119083404541,-4.321437358856201,-0.3900300860404968,0.0232121963053941,-0.0195471122860908,0.0122169442474842,#
9.030512809753418,-4.326223373413086,-0.3708875179290771,0.0122169442474842,-0.0061084721237421,0.0305423624813556,#
9.030512809753418,-4.326223373413086,-0.3708875179290771,-0.0024433890357613,0.003665083553642,0.0476460866630077,#
8.71944522857666,-4.232903003692627,-0.3996013700962066,-0.0586413368582725,0.0293206684291362,0.0965138673782348,#
8.484949111938477,-4.065405368804932,-0.5455635190010071,-0.1270562261343002,0.0109952501952648,0.1404948681592941,#
8.659625053405762,-3.938585996627808,-0.6652047038078308,-0.1514901220798492,-0.0109952501952648,0.152711808681488,#
8.944371223449707,-3.876372575759888,-0.7369893789291382,-0.1600419729948043,-0.0500894747674465,0.1453816443681717,#
8.944371223449707,-3.876372575759888,-0.7369893789291382,-0.1429382413625717,-0.0598630309104919,0.1209477484226226,#
8.9850492477417,-3.94097900390625,-0.672383189201355,-0.0745233595371246,-0.0598630309104919,0.0244338884949684,#
8.779266357421875,-4.051048755645752,-0.6364907622337341,0.0097735561430454,-0.0439810007810592,-0.0867403075098991,#
8.6907320022583,-4.067798614501953,-0.5575276613235474,0.0390942245721817,-0.0378725305199623,-0.130721315741539,#
8.83669376373291,-4.177868366241455,-0.5479563474655151,0.0647498071193695,-0.0293206684291362,-0.1588202863931656,#
8.879764556884766,-4.333401679992676,-0.5072783827781677,0.0415376126766204,-0.0134386392310261,-0.1514901220798492,#
8.879764556884766,-4.333401679992676,-0.5072783827781677,0.0390942245721817,-0.007330167107284,-0.1502684205770492,#
9.008977890014648,-4.398008346557617,-0.5503491759300232,0.0293206684291362,-0.0158820282667875,-0.123391143977642,#
9.183652877807615,-4.529613494873047,-0.5838487148284912,0.0305423624813556,-0.0183254163712263,-0.0830752253532409,#
9.17886734008789,-4.505684852600098,-0.5982056856155396,0.0244338884949684,-0.0219905003905296,-0.0476460866630077,#
9.035298347473145,-4.510470867156982,-0.5814558863639832,0.0171037223190069,-0.0244338884949684,0.007330167107284,#
9.035298347473145,-4.510470867156982,-0.5814558863639832,0.0109952501952648,-0.0366508327424526,0.0207688063383102,#
9.054441452026367,-4.465007305145264,-0.5072783827781677,0.0195471122860908,-0.0537545569241046,0.0525328628718853,#
8.9850492477417,-4.357330322265625,-0.552742063999176,0.0366508327424526,-0.0525328628718853,0.069636583328247,#
8.908478736877441,-4.326223373413086,-0.4067798554897308,0.0452026948332786,-0.0464243926107883,0.0684148892760276,#
8.973085403442383,-4.304687976837158,-0.3708875179290771,0.0671931952238082,-0.0427593067288398,0.0647498071193695,#
8.973085403442383,-4.304687976837158,-0.3708875179290771,0.0733016654849052,-0.0244338884949684,0.0561979450285434,#
8.958727836608887,-4.29033088684082,-0.4283152520656585,0.0549762547016143,-0.0097735561430454,0.0488677769899368,#
8.879764556884766,-4.261617183685303,-0.5168496966362,0.0109952501952648,0.0158820282667875,0.0366508327424526,#
8.906085968017578,-4.383650779724121,-0.5551348924636841,0.003665083553642,0.0183254163712263,0.0390942245721817,#
9.028119087219238,-4.280759334564209,-0.6197410225868225,-0.007330167107284,0.007330167107284,0.0476460866630077,#
9.111868858337402,-4.266402721405029,-0.6029912829399109,0.0061084721237421,-0.0061084721237421,0.0610847249627113,#
9.111868858337402,-4.266402721405029,-0.6029912829399109,0.0085518611595034,-0.0097735561430454,0.0635281130671501,#
9.07119083404541,-4.180261135101318,-0.662811815738678,0.0280989725142717,-0.0158820282667875,0.0733016654849052,#
8.944371223449707,-4.118047714233398,-0.6580261588096619,0.0329857505857944,-0.0244338884949684,0.0720799788832664,#
8.980262756347656,-4.127618789672852,-0.638883650302887,0.0342074446380138,-0.0268772784620523,0.0659715011715889,#
8.944371223449707,-4.055834770202637,-0.552742063999176,0.0452026948332786,-0.031764056533575,0.0549762547016143,#
8.944371223449707,-4.055834770202637,-0.552742063999176,0.0488677769899368,-0.0342074446380138,0.0452026948332786,#
8.992227554321289,-3.974478244781494,-0.5838487148284912,0.0452026948332786,-0.0256555844098329,0.0109952501952648,#
8.925228118896484,-4.055834770202637,-0.5383850932121277,0.0415376126766204,-0.0024433890357613,-0.0109952501952648,#
8.896513938903809,-3.9912283420562735,-0.5359922647476196,0.0280989725142717,0.0048867780715227,-0.0256555844098329,#
8.831908226013184,-4.012763977050781,-0.5647061467170715,-0.0219905003905296,0.0171037223190069,-0.0549762547016143,#
8.762516975402832,-4.084547996520996,-0.5312066078186035,-0.0623064190149307,0.0207688063383102,-0.0708582773804664,#
8.762516975402832,-4.084547996520996,-0.5312066078186035,-0.0647498071193695,0.0158820282667875,-0.0757450610399246,#
8.776873588562012,-4.194617748260498,-0.5407779216766357,-0.0415376126766204,0.0085518611595034,-0.0842969194054603,#
8.827122688293457,-4.220939159393311,-0.6197410225868225,-0.0024433890357613,0.0085518611595034,-0.0867403075098991,#
8.910871505737305,-4.25922441482544,-0.6556334495544434,0.0097735561430454,0.0012216945178806,-0.0904053896665573,#
8.956335067749023,-4.153940200805664,-0.6532405614852905,0.0171037223190069,-0.0134386392310261,-0.0879620015621185,#
8.956335067749023,-4.153940200805664,-0.6532405614852905,0.0024433890357613,-0.0171037223190069,-0.0952921733260154,#
8.949156761169434,-4.273581027984619,-0.662811815738678,-0.0097735561430454,-0.0122169442474842,-0.0708582773804664,#
9.001798629760742,-4.395615100860596,-0.5742774605751038,-0.0439810007810592,-0.0048867780715227,-0.0830752253532409,#
8.882158279418945,-4.548755645751953,-0.48574298620224,-0.0500894747674465,-0.003665083553642,-0.0708582773804664,#
8.879764556884766,-4.620540142059326,-0.4642075896263122,-0.0464243926107883,-0.003665083553642,-0.0488677769899368,#
8.879764556884766,-4.620540142059326,-0.4642075896263122,-0.0452026948332786,-0.0109952501952648,-0.0244338884949684,#
8.903693199157715,-4.6372904777526855,-0.4689932465553283,-0.0525328628718853,-0.007330167107284,-0.0146603342145681,#
8.915657043457031,-4.673182487487793,-0.4163511395454407,-0.0525328628718853,0.0061084721237421,0.0048867780715227,#
8.82951545715332,-4.749752521514893,-0.413958340883255,-0.040315918624401,0.0085518611595034,0.0171037223190069,#
8.980262756347656,-4.685146808624268,-0.4546363055706024,0.0122169442474842,0.0024433890357613,0.040315918624401,#
8.889336585998535,-4.570291519165039,-0.4713860750198364,0.0464243926107883,0.0097735561430454,0.0610847249627113,#
8.889336585998535,-4.570291519165039,-0.4713860750198364,0.0513111688196659,0.0146603342145681,0.0745233595371246,#
8.827122688293457,-4.34536600112915,-0.5168496966362,0.0488677769899368,0.007330167107284,0.0977355539798736,#
8.949156761169434,-4.228117942810059,-0.6819544434547424,0.0378725305199623,-0.0158820282667875,0.1087308079004287,#
9.147761344909668,-4.156332969665527,-0.5886343717575073,0.0293206684291362,-0.0195471122860908,0.1062874197959899,#
9.023333549499512,-4.084547996520996,-0.5647061467170715,0.0219905003905296,-0.0268772784620523,0.0855186134576797,#
9.023333549499512,-4.084547996520996,-0.5647061467170715,0.0256555844098329,-0.0280989725142717,0.0671931952238082,#
8.874979019165039,-4.118047714233398,-0.4785645008087158,0.0452026948332786,-0.0219905003905296,0.0280989725142717,#
8.831908226013184,-4.130012035369873,-0.4594219326972961,0.0610847249627113,-0.0085518611595034,0.003665083553642,#
8.786444664001465,-4.1347975730896,-0.4785645008087158,0.0488677769899368,-0.0012216945178806,-0.0024433890357613,#
8.796016693115234,-4.130012035369873,-0.4929214715957641,0.007330167107284,0.0134386392310261,0.0012216945178806,#
8.798408508300781,-4.144368648529053,-0.672383189201355,-0.0183254163712263,0.0158820282667875,0.0085518611595034,#
8.798408508300781,-4.144368648529053,-0.672383189201355,-0.0158820282667875,0.0109952501952648,0.0048867780715227,#
8.965906143188477,-4.130012035369873,-0.6412764191627502,-0.0158820282667875,0.0109952501952648,-0.0171037223190069,#
8.93240737915039,-4.110869407653809,-0.5694918036460876,0.0158820282667875,-0.0122169442474842,-0.0464243926107883,#
8.865407943725586,-4.180261135101318,-0.6795615553855896,0.0256555844098329,-0.0219905003905296,-0.0561979450285434,#
8.865407943725586,-4.211367607116699,-0.6604190468788147,0.0537545569241046,-0.0427593067288398,-0.069636583328247,#
8.865407943725586,-4.211367607116699,-0.6604190468788147,0.0574196390807628,-0.0488677769899368,-0.0769667476415634,#
8.863015174865723,-4.333401679992676,-0.5575276613235474,0.0488677769899368,-0.0452026948332786,-0.0794101431965828,#
8.84626579284668,-4.433900356292725,-0.5288137793540955,0.0525328628718853,-0.0378725305199623,-0.0830752253532409,#
8.858229637145996,-4.551148891448975,-0.4618147313594818,0.0733016654849052,-0.0390942245721817,-0.0855186134576797,#
8.939584732055664,-4.486542701721191,-0.3637090623378753,0.100178949534893,-0.0305423624813556,-0.0818535313010215,#
8.939584732055664,-4.486542701721191,-0.3637090623378753,0.0818535313010215,-0.0195471122860908,-0.0574196390807628,#
8.965906143188477,-4.479363918304443,-0.3900300860404968,0.0513111688196659,-0.007330167107284,-0.0378725305199623,#
8.9371919631958,-4.524827480316162,-0.5144568681716919,0.0244338884949684,0.0085518611595034,0.0183254163712263,#
8.941977500915527,-4.333401679992676,-0.6173481941223145,0.0158820282667875,0.0109952501952648,0.0464243926107883,#
9.049654960632324,-4.249652862548828,-0.5862415432929993,0.007330167107284,-0.0012216945178806,0.0757450610399246,#
8.95394229888916,-4.02472734451294,-0.6364907622337341,0.0109952501952648,-0.0024433890357613,0.0879620015621185,#
8.95394229888916,-4.02472734451294,-0.6364907622337341,0.0122169442474842,-0.0061084721237421,0.0867403075098991,#
8.951549530029297,-3.900300979614258,-0.6915256977081299,-0.0195471122860908,-0.0146603342145681,0.0830752253532409,#
8.96112060546875,-3.996013641357422,-0.6317051649093628,-0.0623064190149307,-0.0146603342145681,0.0684148892760276,#
9.04726219177246,-4.065405368804932,-0.4498506784439087,-0.0708582773804664,-0.007330167107284,0.0635281130671501,#
8.934800148010254,-3.996013641357422,-0.4594219326972961,-0.0842969194054603,0.0122169442474842,0.0549762547016143,#
8.934800148010254,-3.996013641357422,-0.4594219326972961,-0.0940704718232154,0.0195471122860908,0.0513111688196659,#
8.97787094116211,-3.902693748474121,-0.4977070987224579,-0.1441599577665329,0.0329857505857944,0.0366508327424526,#
9.06401252746582,-4.000799655914307,-0.4354937374591827,-0.1954711079597473,0.0537545569241046,0.0207688063383102,#
9.016156196594238,-3.948157548904419,-0.4498506784439087,-0.2223483920097351,0.0635281130671501,0.0048867780715227,#
8.882158279418945,-4.086941242218018,-0.5072783827781677,-0.2541124522686004,0.0684148892760276,-0.0171037223190069,#
8.807979583740234,-4.275973796844482,-0.4666004180908203,-0.2406738102436065,0.0574196390807628,-0.031764056533575,#
8.807979583740234,-4.275973796844482,-0.4666004180908203,-0.2162399291992187,0.0488677769899368,-0.0366508327424526,#
8.855835914611816,-4.268795490264893,-0.4953142702579498,-0.1673721522092819,0.0452026948332786,-0.0513111688196659,#
8.810372352600098,-4.431507587432861,-0.4737788736820221,-0.129499614238739,0.0439810007810592,-0.0561979450285434,#
8.815157890319824,-4.445864677429199,-0.4235295951366424,-0.1062874197959899,0.0464243926107883,-0.0623064190149307,#
8.817551612854004,-4.455435752868652,-0.5407779216766357,-0.0452026948332786,0.0513111688196659,-0.0757450610399246,#
8.817551612854004,-4.455435752868652,-0.5407779216766357,-0.0305423624813556,0.0525328628718853,-0.0818535313010215,#
8.843873023986816,-4.4027934074401855,-0.4761717021465301,-0.0280989725142717,0.0500894747674465,-0.0928487852215766,#
8.906085968017578,-4.481756687164307,-0.4785645008087158,-0.0378725305199623,0.0525328628718853,-0.0928487852215766,#
8.874979019165039,-4.534398555755615,-0.5048855543136597,-0.0390942245721817,0.0525328628718853,-0.0891837030649185,#
8.9371919631958,-4.536791324615479,-0.6101697683334351,-0.0268772784620523,0.0390942245721817,-0.0733016654849052,#
8.918049812316895,-4.498506546020508,-0.6340980529785156,-0.0293206684291362,0.0195471122860908,-0.0513111688196659,#
8.918049812316895,-4.498506546020508,-0.6340980529785156,-0.0366508327424526,0.0109952501952648,-0.0378725305199623,#
8.941977500915527,-4.646861553192139,-0.6269195079803467,-0.0158820282667875,0.0012216945178806,-0.0207688063383102,#
8.776873588562012,-4.615755081176758,-0.638883650302887,0.0048867780715227,-0.0024433890357613,-0.0158820282667875,#
8.803194999694824,-4.503292083740234,-0.6197410225868225,0.0427593067288398,-0.0195471122860908,-0.007330167107284,#
8.865407943725586,-4.541577339172363,-0.6293123364448547,0.0574196390807628,-0.0171037223190069,0.0085518611595034,#
8.865407943725586,-4.541577339172363,-0.6293123364448547,0.0733016654849052,-0.0146603342145681,0.0097735561430454,#
8.807979583740234,-4.529613494873047,-0.5623133182525635,0.1111741960048675,-0.0293206684291362,0.0012216945178806,#
8.884550094604492,-4.378865718841553,-0.5670989155769348,0.130721315741539,-0.0305423624813556,-0.0012216945178806,#
8.841480255126953,-4.285545349121094,-0.5766702890396118,0.128277912735939,-0.0293206684291362,0.0012216945178806,#
8.901299476623535,-4.230510234832764,-0.552742063999176,0.1185043603181839,-0.031764056533575,0.0097735561430454,#
8.901299476623535,-4.230510234832764,-0.552742063999176,0.1197260618209838,-0.0329857505857944,0.0122169442474842,#
8.853443145751953,-4.115654945373535,-0.5742774605751038,0.1185043603181839,-0.0378725305199623,0.0134386392310261,#
8.908478736877441,-4.074976921081543,-0.6005984544754028,0.1075091138482093,-0.0415376126766204,0.0097735561430454,#
8.891729354858398,-4.086941242218018,-0.5910272002220154,0.100178949534893,-0.0415376126766204,0.0061084721237421,#
8.94676399230957,-4.051048755645752,-0.5335994362831116,0.0940704718232154,-0.0427593067288398,-0.003665083553642,#
8.968299865722656,-4.106083393096924,-0.4905286431312561,0.0818535313010215,-0.0439810007810592,-0.0122169442474842,#
8.968299865722656,-4.106083393096924,-0.4905286431312561,0.069636583328247,-0.0415376126766204,-0.0146603342145681,#
9.052047729492188,-4.146761417388916,-0.5431707501411438,0.0427593067288398,-0.0390942245721817,-0.0195471122860908,#
9.040083885192873,-4.194617748260498,-0.4761717021465301,0.0256555844098329,-0.0366508327424526,-0.0122169442474842,#
9.044869422912598,-4.244867324829102,-0.4546363055706024,0.0207688063383102,-0.0354291386902332,-0.0061084721237421,#
8.9850492477417,-4.206582069396973,-0.4713860750198364,0.0158820282667875,-0.0293206684291362,0.003665083553642,#
8.9850492477417,-4.206582069396973,-0.4713860750198364,0.0171037223190069,-0.0305423624813556,0.007330167107284,#
9.044869422912598,-4.1730828285217285,-0.3637090623378753,0.0244338884949684,-0.0280989725142717,0.0109952501952648,#
8.97787094116211,-4.211367607116699,-0.4378865361213684,0.0305423624813556,-0.0219905003905296,0.007330167107284,#
8.989834785461426,-4.230510234832764,-0.4666004180908203,0.031764056533575,-0.0207688063383102,0.0048867780715227,#
8.975478172302246,-4.168296813964844,-0.48574298620224,0.040315918624401,-0.0171037223190069,0.0024433890357613,#
9.006584167480469,-4.161118507385254,-0.4091726541519165,0.040315918624401,-0.0085518611595034,0.0048867780715227,#
9.006584167480469,-4.161118507385254,-0.4091726541519165,0.0390942245721817,-0.0048867780715227,0.007330167107284,#
8.999405860900879,-4.218546390533447,-0.5120640397071838,0.0329857505857944,-0.0048867780715227,0.0085518611595034,#
8.93240737915039,-4.096512317657471,-0.5407779216766357,0.0244338884949684,-0.003665083553642,0.0122169442474842,#
8.968299865722656,-4.1036906242370605,-0.5814558863639832,0.0012216945178806,-0.003665083553642,0.0109952501952648,#
8.994620323181152,-4.132404804229736,-0.6221339106559753,-0.0171037223190069,-0.0012216945178806,0.003665083553642,#
8.994620323181152,-4.132404804229736,-0.6221339106559753,-0.0183254163712263,-0.0012216945178806,0.003665083553642,#
9.011369705200195,-4.175475597381592,-0.6508477926254272,-0.0097735561430454,-0.0012216945178806,-0.0122169442474842,#
9.004191398620605,-4.110869407653809,-0.5886343717575073,-0.0085518611595034,-0.0012216945178806,-0.0195471122860908,#
8.882158279418945,-4.220939159393311,-0.4713860750198364,-0.0109952501952648,-0.0024433890357613,-0.0183254163712263,#
8.906085968017578,-4.089334011077881,-0.4522434771060943,-0.0158820282667875,-0.0061084721237421,-0.0146603342145681,#
8.906085968017578,-4.089334011077881,-0.4522434771060943,-0.0158820282667875,-0.0061084721237421,-0.0171037223190069,#
8.934800148010254,-4.151546955108643,-0.4546363055706024,-0.0207688063383102,-0.003665083553642,-0.0183254163712263,#
8.963513374328613,-4.125226020812988,-0.48574298620224,-0.031764056533575,-0.0012216945178806,-0.0219905003905296,#
8.860621452331543,-4.180261135101318,-0.4235295951366424,-0.0354291386902332,-0.0012216945178806,-0.0244338884949684,#
8.98265552520752,-4.268795490264893,-0.4331009089946747,-0.0354291386902332,0.0024433890357613,-0.0268772784620523,#
8.965906143188477,-4.319044589996338,-0.5431707501411438,-0.0293206684291362,0.0048867780715227,-0.0268772784620523,#
8.965906143188477,-4.319044589996338,-0.5431707501411438,-0.0280989725142717,0.0048867780715227,-0.0232121963053941,#
8.958727836608887,-4.177868366241455,-0.5623133182525635,-0.0268772784620523,0.0012216945178806,-0.0207688063383102,#
9.025726318359377,-4.230510234832764,-0.5718846321105957,-0.0171037223190069,0.0012216945178806,-0.0183254163712263,#
8.94676399230957,-4.220939159393311,-0.6125625967979431,-0.0097735561430454,-0.0012216945178806,-0.0207688063383102,#
8.934800148010254,-4.278366565704346,-0.5670989155769348,0.0024433890357613,-0.0085518611595034,-0.0256555844098329,#
8.934800148010254,-4.278366565704346,-0.5670989155769348,0.0097735561430454,-0.0109952501952648,-0.0280989725142717,#
8.894121170043945,-4.2376885414123535,-0.5455635190010071,0.0195471122860908,-0.0109952501952648,-0.031764056533575,#
8.901299476623535,-4.223331928253174,-0.5575276613235474,0.0232121963053941,-0.0097735561430454,-0.031764056533575,#
8.901299476623535,-4.240081787109375,-0.5407779216766357,0.0268772784620523,-0.0109952501952648,-0.031764056533575,#
8.877371788024902,-4.261617183685303,-0.5383850932121277,0.0329857505857944,-0.0158820282667875,-0.0329857505857944,#
8.9371919631958,-4.1730828285217285,-0.519242525100708,0.0305423624813556,-0.0171037223190069,-0.0342074446380138,#
8.9371919631958,-4.1730828285217285,-0.519242525100708,0.0305423624813556,-0.0183254163712263,-0.0366508327424526,#
8.980262756347656,-4.19701099395752,-0.5599204897880554,0.0354291386902332,-0.0219905003905296,-0.040315918624401,#
8.865407943725586,-4.204189300537109,-0.5479563474655151,0.0427593067288398,-0.0256555844098329,-0.0452026948332786,#
8.96112060546875,-4.206582069396973,-0.4761717021465301,0.0464243926107883,-0.0293206684291362,-0.0452026948332786,#
8.970691680908203,-4.149154186248779,-0.4522434771060943,0.0537545569241046,-0.0293206684291362,-0.0427593067288398,#
8.970691680908203,-4.149154186248779,-0.4522434771060943,0.0549762547016143,-0.0280989725142717,-0.0390942245721817,#
8.941977500915527,-4.278366565704346,-0.4689932465553283,0.0537545569241046,-0.0256555844098329,-0.031764056533575,#
9.037691116333008,-4.225724697113037,-0.4713860750198364,0.0610847249627113,-0.0183254163712263,-0.0171037223190069,#
8.901299476623535,-4.153940200805664,-0.4019941985607147,0.0623064190149307,-0.0195471122860908,-0.0097735561430454,#
9.104689598083496,-4.163511276245117,-0.5240281224250793,0.0476460866630077,-0.0280989725142717,-0.0109952501952648,#
9.104689598083496,-4.163511276245117,-0.5240281224250793,0.040315918624401,-0.0293206684291362,-0.0048867780715227,#
8.975478172302246,-4.127618789672852,-0.4689932465553283,0.040315918624401,-0.0280989725142717,-0.003665083553642,#
8.98265552520752,-4.199403762817383,-0.5264209508895874,0.0427593067288398,-0.0268772784620523,-0.0048867780715227,#
8.973085403442383,-4.185047149658203,-0.4666004180908203,0.0452026948332786,-0.0268772784620523,-0.0048867780715227,#
9.001798629760742,-4.182653903961182,-0.5168496966362,0.0452026948332786,-0.0280989725142717,-0.0097735561430454,#
8.97787094116211,-4.070191383361816,-0.5072783827781677,0.0513111688196659,-0.0280989725142717,-0.0122169442474842,#
8.97787094116211,-4.070191383361816,-0.5072783827781677,0.0525328628718853,-0.0293206684291362,-0.0134386392310261,#
9.035298347473145,-4.115654945373535,-0.5024927258491516,0.0561979450285434,-0.0293206684291362,-0.0207688063383102,#
9.037691116333008,-4.106083393096924,-0.4977070987224579,0.0598630309104919,-0.0232121963053941,-0.0244338884949684,#
8.975478172302246,-4.163511276245117,-0.4977070987224579,0.0586413368582725,-0.0219905003905296,-0.0268772784620523,#
8.896513938903809,-4.149154186248779,-0.4953142702579498,0.0574196390807628,-0.0183254163712263,-0.0256555844098329,#
8.896513938903809,-4.149154186248779,-0.4953142702579498,0.0610847249627113,-0.0183254163712263,-0.0244338884949684,#
8.934800148010254,-4.170689582824707,-0.4522434771060943,0.0598630309104919,-0.0171037223190069,-0.0171037223190069,#
9.001798629760742,-4.118047714233398,-0.4785645008087158,0.0513111688196659,-0.0109952501952648,-0.007330167107284,#
9.052047729492188,-4.106083393096924,-0.5216353535652161,0.0452026948332786,-0.0085518611595034,-0.0024433890357613,#
9.037691116333008,-4.153940200805664,-0.5647061467170715,0.0354291386902332,-0.0024433890357613,-0.0024433890357613,#
9.001798629760742,-4.1036906242370605,-0.5503491759300232,0.0342074446380138,-0.0012216945178806,0.0012216945178806,#
9.001798629760742,-4.1036906242370605,-0.5503491759300232,0.0329857505857944,-0.003665083553642,0.0024433890357613,#
8.973085403442383,-4.122833251953125,-0.5790630578994751,0.0280989725142717,-0.0061084721237421,0.0109952501952648,#
8.910871505737305,-4.058227062225342,-0.5838487148284912,0.0280989725142717,-0.0146603342145681,0.0207688063383102,#
8.927621841430664,-4.089334011077881,-0.5599204897880554,0.0293206684291362,-0.0183254163712263,0.0256555844098329,#
8.98265552520752,-3.9864425659179688,-0.6269195079803467,0.0342074446380138,-0.0219905003905296,0.0219905003905296,#
8.98265552520752,-3.9864425659179688,-0.6269195079803467,0.0366508327424526,-0.0219905003905296,0.0195471122860908,#
8.96112060546875,-4.029513359069824,-0.5886343717575073,0.0354291386902332,-0.0195471122860908,0.0109952501952648,#
8.980262756347656,-4.02472734451294,-0.5144568681716919,0.0268772784620523,-0.0219905003905296,0.0012216945178806,#
9.001798629760742,-4.060619831085205,-0.4594219326972961,0.0244338884949684,-0.0207688063383102,-0.0024433890357613,#
8.944371223449707,-4.125226020812988,-0.4809573292732239,0.0207688063383102,-0.0146603342145681,-0.003665083553642,#
8.96112060546875,-4.07258415222168,-0.5455635190010071,0.0207688063383102,-0.0171037223190069,-0.003665083553642,#
8.96112060546875,-4.07258415222168,-0.5455635190010071,0.0219905003905296,-0.0195471122860908,-0.0024433890357613,#
8.968299865722656,-4.1347975730896,-0.48574298620224,0.0232121963053941,-0.0195471122860908,-0.003665083553642,#
8.989834785461426,-4.096512317657471,-0.5072783827781677,0.0232121963053941,-0.0219905003905296,-0.0048867780715227,#
8.920442581176758,-4.1036906242370605,-0.5048855543136597,0.0293206684291362,-0.0256555844098329,-0.0097735561430454,#
9.006584167480469,-4.048655986785889,-0.4378865361213684,0.0342074446380138,-0.0244338884949684,-0.0134386392310261,#
9.006584167480469,-4.048655986785889,-0.4378865361213684,0.0305423624813556,-0.0207688063383102,-0.0146603342145681,#
8.906085968017578,-4.118047714233398,-0.5383850932121277,0.0232121963053941,-0.0183254163712263,-0.0134386392310261,#
8.95394229888916,-4.046263217926025,-0.5120640397071838,0.0109952501952648,-0.0195471122860908,-0.0146603342145681,#
9.011369705200195,-4.113262176513672,-0.5168496966362,0.0061084721237421,-0.0183254163712263,-0.0158820282667875,#
8.989834785461426,-4.074976921081543,-0.5096712112426758,0.0024433890357613,-0.0183254163712263,-0.0207688063383102,#
8.989834785461426,-4.074976921081543,-0.5096712112426758,0.0012216945178806,-0.0183254163712263,-0.0207688063383102,#
9.040083885192873,-4.096512317657471,-0.4809573292732239,0.007330167107284,-0.0061084721237421,-0.003665083553642,#
8.98265552520752,-4.137190341949463,-0.5575276613235474,0.003665083553642,-0.0146603342145681,-0.0219905003905296,#
9.037691116333008,-4.132404804229736,-0.4426721632480621,0.007330167107284,-0.0171037223190069,-0.0207688063383102,#
9.023333549499512,-4.065405368804932,-0.4522434771060943,0.003665083553642,-0.0158820282667875,-0.0158820282667875,#
8.95394229888916,-4.168296813964844,-0.4666004180908203,0.003665083553642,-0.0158820282667875,-0.0109952501952648,#
8.95394229888916,-4.168296813964844,-0.4666004180908203,0.0048867780715227,-0.0171037223190069,-0.0097735561430454,#
8.949156761169434,-4.194617748260498,-0.4929214715957641,0.003665083553642,-0.0146603342145681,-0.007330167107284,#
8.93240737915039,-4.110869407653809,-0.4905286431312561,0.003665083553642,0.0024433890357613,0.0109952501952648,#
8.930014610290527,-4.206582069396973,-0.4163511395454407,-0.0097735561430454,0.0024433890357613,-0.0061084721237421,#
8.910871505737305,-4.208974838256836,-0.4953142702579498,-0.0158820282667875,0.0024433890357613,-0.0012216945178806,#
8.910871505737305,-4.208974838256836,-0.4953142702579498,-0.0171037223190069,0.0061084721237421,0.003665083553642,#
8.95394229888916,-4.19701099395752,-0.5168496966362,-0.0183254163712263,0.007330167107284,0.0097735561430454,#
8.910871505737305,-4.163511276245117,-0.5168496966362,-0.0146603342145681,0.003665083553642,0.0158820282667875,#
8.999405860900879,-4.216153621673584,-0.5479563474655151,-0.0146603342145681,0.0012216945178806,0.0171037223190069,#
9.006584167480469,-4.208974838256836,-0.4809573292732239,-0.0122169442474842,-0.0012216945178806,0.0219905003905296,#
9.04726219177246,-4.132404804229736,-0.5886343717575073,-0.007330167107284,-0.0085518611595034,0.0256555844098329,#
9.04726219177246,-4.132404804229736,-0.5886343717575073,-0.0048867780715227,-0.0109952501952648,0.0268772784620523,#
8.973085403442383,-4.144368648529053,-0.430708110332489,0.003665083553642,-0.0097735561430454,0.0268772784620523,#
8.965906143188477,-4.106083393096924,-0.5000999569892883,0.0097735561430454,-0.0122169442474842,0.0256555844098329,#
8.98265552520752,-4.1347975730896,-0.4570291042327881,0.0244338884949684,-0.0158820282667875,0.0244338884949684,#
9.004191398620605,-4.070191383361816,-0.4642075896263122,0.0207688063383102,-0.0171037223190069,0.0183254163712263,#
9.004191398620605,-4.070191383361816,-0.4642075896263122,0.0134386392310261,-0.0146603342145681,0.0171037223190069,#
9.008977890014648,-4.120440483093262,-0.4283152520656585,0.0097735561430454,-0.0048867780715227,0.0061084721237421,#
8.965906143188477,-4.048655986785889,-0.5335994362831116,0.0146603342145681,0.0012216945178806,-0.0061084721237421,#
8.97787094116211,-4.130012035369873,-0.5240281224250793,0.0207688063383102,-0.0012216945178806,-0.0109952501952648,#
9.061619758605955,-4.192224979400635,-0.4833501875400543,0.0280989725142717,-0.007330167107284,-0.0122169442474842,#
9.061619758605955,-4.192224979400635,-0.4833501875400543,0.0366508327424526,-0.0085518611595034,-0.0048867780715227,#
9.011369705200195,-4.1036906242370605,-0.5144568681716919,0.0354291386902332,-0.0097735561430454,-0.003665083553642,#
8.992227554321289,-4.122833251953125,-0.5048855543136597,0.0390942245721817,-0.0134386392310261,-0.0048867780715227,#
8.980262756347656,-4.0797624588012695,-0.4498506784439087,0.0366508327424526,-0.0109952501952648,-0.007330167107284,#
8.958727836608887,-4.063012599945068,-0.4929214715957641,0.0256555844098329,-0.0024433890357613,-0.0158820282667875,#
8.965906143188477,-4.113262176513672,-0.4283152520656585,0.0097735561430454,0.0024433890357613,-0.0195471122860908,#
8.965906143188477,-4.113262176513672,-0.4283152520656585,0.003665083553642,0.0024433890357613,-0.0232121963053941,#
8.98265552520752,-4.144368648529053,-0.5431707501411438,-0.003665083553642,0.0061084721237421,-0.0219905003905296,#
8.908478736877441,-4.115654945373535,-0.430708110332489,-0.0048867780715227,0.0061084721237421,-0.0146603342145681,#
8.956335067749023,-4.137190341949463,-0.48574298620224,-0.003665083553642,0.0024433890357613,-0.0134386392310261,#
8.927621841430664,-4.144368648529053,-0.5288137793540955,-0.007330167107284,0.0012216945178806,-0.0134386392310261,#
8.927621841430664,-4.144368648529053,-0.5288137793540955,-0.0109952501952648,-0.0012216945178806,-0.0146603342145681,#
8.934800148010254,-4.110869407653809,-0.5240281224250793,-0.0146603342145681,-0.0024433890357613,-0.0183254163712263,#
8.930014610290527,-4.125226020812988,-0.4259224236011505,-0.0195471122860908,0.0024433890357613,-0.0146603342145681,#
8.86780071258545,-4.125226020812988,-0.4498506784439087,-0.0256555844098329,0.0048867780715227,-0.0109952501952648,#
8.889336585998535,-4.122833251953125,-0.5144568681716919,-0.0415376126766204,0.007330167107284,-0.0012216945178806,#
9.078369140625,-4.082155227661133,-0.4785645008087158,-0.0623064190149307,0.0109952501952648,0.0061084721237421,#
9.078369140625,-4.082155227661133,-0.4785645008087158,-0.0769667476415634,0.0134386392310261,0.007330167107284,#
8.980262756347656,-3.9912283420562735,-0.6293123364448547,-0.0977355539798736,0.0183254163712263,-0.003665083553642,#
8.951549530029297,-4.039084434509277,-0.662811815738678,-0.0928487852215766,0.0097735561430454,-0.0219905003905296,#
9.061619758605955,-4.029513359069824,-0.6317051649093628,-0.0830752253532409,0.003665083553642,-0.0354291386902332,#
9.07119083404541,-4.211367607116699,-0.6149553656578064,-0.0464243926107883,-0.0219905003905296,-0.0610847249627113,#
9.07119083404541,-4.211367607116699,-0.6149553656578064,-0.0232121963053941,-0.0354291386902332,-0.0647498071193695,#
9.037691116333008,-4.3310089111328125,-0.4115655124187469,0.0183254163712263,-0.0329857505857944,-0.0659715011715889,#
8.915657043457031,-4.41475772857666,-0.4067798554897308,0.0366508327424526,-0.0268772784620523,-0.0623064190149307,#
9.05683422088623,-4.474578380584717,-0.3517449200153351,0.0390942245721817,-0.0244338884949684,-0.0427593067288398,#
8.97787094116211,-4.4721856117248535,-0.3708875179290771,0.0439810007810592,-0.0158820282667875,-0.0134386392310261,#
8.97787094116211,-4.4721856117248535,-0.3708875179290771,0.0671931952238082,-0.0085518611595034,0.0146603342145681,#
8.918049812316895,-4.280759334564209,-0.4474578499794006,0.069636583328247,-0.0048867780715227,0.0183254163712263,#
8.918049812316895,-4.086941242218018,-0.5096712112426758,0.0561979450285434,-0.007330167107284,0.0219905003905296,#
8.903693199157715,-4.125226020812988,-0.5024927258491516,0.0500894747674465,-0.0109952501952648,0.0256555844098329,#
8.9850492477417,-4.046263217926025,-0.6460621356964111,0.0488677769899368,-0.0183254163712263,0.0293206684291362,#
8.965906143188477,-4.149154186248779,-0.6221339106559753,0.0476460866630077,-0.0195471122860908,0.0293206684291362,#
8.965906143188477,-4.149154186248779,-0.6221339106559753,0.0476460866630077,-0.0183254163712263,0.0244338884949684,#
8.949156761169434,-4.084547996520996,-0.6508477926254272,0.0561979450285434,-0.0219905003905296,0.0171037223190069,#
9.054441452026367,-3.9912283420562735,-0.6556334495544434,0.0513111688196659,-0.0305423624813556,0.0207688063383102,#
9.06879711151123,-3.981656789779663,-0.638883650302887,0.040315918624401,-0.0293206684291362,0.0207688063383102,#
8.910871505737305,-4.027120590209961,-0.5958128571510315,0.0085518611595034,-0.0232121963053941,0.0183254163712263,#
8.910871505737305,-4.027120590209961,-0.5958128571510315,-0.0012216945178806,-0.0219905003905296,0.0134386392310261,#
8.906085968017578,-3.945764780044556,-0.5168496966362,-0.0048867780715227,-0.0244338884949684,0.0109952501952648,#
8.894121170043945,-4.005585193634033,-0.5383850932121277,-0.0183254163712263,-0.031764056533575,0.0024433890357613,#
8.968299865722656,-3.981656789779663,-0.3708875179290771,-0.0244338884949684,-0.0293206684291362,-0.0024433890357613,#
9.008977890014648,-4.051048755645752,-0.4187439680099487,-0.0342074446380138,-0.0207688063383102,-0.0122169442474842,#
9.011369705200195,-4.091726779937744,-0.3637090623378753,-0.0342074446380138,-0.0122169442474842,-0.0244338884949684,#
9.011369705200195,-4.091726779937744,-0.3637090623378753,-0.0342074446380138,-0.0134386392310261,-0.0268772784620523,#
8.999405860900879,-4.228117942810059,-0.4331009089946747,-0.0219905003905296,-0.0085518611595034,-0.0256555844098329,#
9.023333549499512,-4.285545349121094,-0.3924228847026825,-0.0219905003905296,-0.0146603342145681,-0.0268772784620523,#
9.121439933776855,-4.242474555969238,-0.4115655124187469,0.0134386392310261,-0.0158820282667875,-0.0207688063383102,#
9.042476654052734,-4.189832210540772,-0.3924228847026825,0.0305423624813556,-0.0122169442474842,-0.0109952501952648,#
9.042476654052734,-4.189832210540772,-0.3924228847026825,0.0366508327424526,-0.0097735561430454,-0.003665083553642,#
8.941977500915527,-4.158725738525391,-0.519242525100708,0.0427593067288398,-0.003665083553642,0.0097735561430454,#
8.989834785461426,-4.1347975730896,-0.4498506784439087,0.040315918624401,-0.003665083553642,0.0207688063383102,#
8.898907661437988,-4.082155227661133,-0.4450649619102478,0.0415376126766204,-0.0061084721237421,0.0219905003905296,#
8.863015174865723,-4.005585193634033,-0.5407779216766357,0.0427593067288398,-0.0061084721237421,0.0232121963053941,#
8.863015174865723,-4.005585193634033,-0.5407779216766357,0.0268772784620523,-0.0085518611595034,0.0195471122860908,#
8.86780071258545,-3.964907169342041,-0.5886343717575073,0.0146603342145681,-0.0158820282667875,0.0195471122860908,#
8.975478172302246,-4.1347975730896,-0.6508477926254272,0.0109952501952648,-0.0232121963053941,0.0158820282667875,#
8.915657043457031,-4.015156269073486,-0.6364907622337341,0.0207688063383102,-0.0195471122860908,0.0109952501952648,#
8.997013092041016,-3.972085475921631,-0.6771688461303711,0.031764056533575,-0.0305423624813556,0.003665083553642,#
8.827122688293457,-3.948157548904419,-0.6101697683334351,0.0232121963053941,-0.0354291386902332,0.0024433890357613,#
8.827122688293457,-3.948157548904419,-0.6101697683334351,0.0171037223190069,-0.0378725305199623,0.0012216945178806,#
8.949156761169434,-3.943371772766113,-0.5670989155769348,0.0061084721237421,-0.0500894747674465,-0.0061084721237421,#
9.018548011779783,-4.01037073135376,-0.6604190468788147,-0.0048867780715227,-0.0464243926107883,-0.0146603342145681,#
8.927621841430664,-4.0797624588012695,-0.6005984544754028,-0.0122169442474842,-0.0427593067288398,-0.0171037223190069,#
8.865407943725586,-4.082155227661133,-0.7034898400306702,-0.0244338884949684,-0.0439810007810592,-0.0256555844098329,#
8.865407943725586,-4.082155227661133,-0.7034898400306702,-0.0146603342145681,-0.0561979450285434,-0.0122169442474842,#
8.944371223449707,-3.9792640209198,-0.6556334495544434,-0.007330167107284,-0.0464243926107883,-0.0390942245721817,#
8.97787094116211,-4.1347975730896,-0.5862415432929993,-0.007330167107284,-0.0525328628718853,-0.0671931952238082,#
9.013763427734377,-4.29033088684082,-0.4522434771060943,0.0109952501952648,-0.0561979450285434,-0.0708582773804664,#
8.970691680908203,-4.316651821136475,-0.5479563474655151,0.0366508327424526,-0.0574196390807628,-0.0879620015621185,#
9.040083885192873,-4.582255363464356,-0.4546363055706024,0.0806318372488021,-0.0464243926107883,-0.1160609796643257,#
9.040083885192873,-4.582255363464356,-0.4546363055706024,0.1087308079004287,-0.0513111688196659,-0.1111741960048675,#
9.131011009216309,-4.807180881500244,-0.4067798554897308,0.2064663618803024,-0.0598630309104919,-0.0940704718232154,#
9.140583038330078,-4.90528678894043,-0.4618147313594818,0.3530696928501129,-0.0623064190149307,-0.0647498071193695,#
9.11426067352295,-5.520241737365723,-0.5670989155769348,0.4214845895767212,-0.0769667476415634,-0.0280989725142717,#
8.934800148010254,-5.876771926879883,-0.3900300860404968,0.5851916074752808,-0.130721315741539,0.0134386392310261,#
8.934800148010254,-5.876771926879883,-0.3900300860404968,0.6988092660903931,-0.1856975704431533,0.0390942245721817,#
8.944371223449707,-6.903293132781982,0.057427741587162,0.8991671204566956,-0.3066453039646148,0.2040229737758636,#
9.8871431350708,-8.86780071258545,0.260817676782608,0.864959716796875,-0.365286648273468,0.4495835602283478,#
11.30130100250244,-13.146167755126951,0.8949156999588013,1.0469921827316284,-0.3139754831790924,0.726908266544342,#
11.83011531829834,-16.0701961517334,1.983649969100952,1.5539953708648682,-0.2040229737758636,1.3230950832366943,#
12.081361770629885,-17.249858856201172,3.232703685760498,1.980366826057434,-0.282211422920227,2.0842106342315674,#
12.081361770629885,-17.249858856201172,3.232703685760498,1.9534894227981567,-0.2956500649452209,2.574110269546509,#
12.906885147094728,-20.001604080200195,3.3858442306518555,1.4281609058380127,-0.310310423374176,3.7848095893859854,#
14.773286819458008,-23.887548446655277,3.2829525470733643,1.202147364616394,-0.31641885638237,4.412760257720947,#
17.027326583862305,-27.0484676361084,3.201596736907959,1.4037269353866575,-0.2651077210903168,5.547714710235596,#
18.49651908874512,-27.519853591918945,2.96949315071106,2.664515733718872,-0.0989572554826736,6.473758697509766,#
18.49651908874512,-27.519853591918945,2.96949315071106,3.390202283859253,0.0476460866630077,6.886691570281982,#
17.151752471923828,-23.207984924316406,3.5198421478271484,4.056025505065918,0.5399889945983887,7.451114654541016,#
13.892727851867676,-19.06122398376465,3.5820553302764893,4.131770610809326,0.9468132257461548,7.652694225311279,#
10.899307250976562,-16.517654418945312,3.3547375202178955,4.19529914855957,1.068982720375061,7.629481792449951,#
8.372486114501953,-15.39781379699707,3.460021495819092,4.729179382324219,1.1202938556671145,7.280077457427978,#
8.372486114501953,-15.39781379699707,3.460021495819092,5.116456508636475,1.1068552732467651,7.0223002433776855,#
6.989434719085693,-14.428720474243164,3.249453067779541,5.849472999572754,1.067760944366455,6.395570755004883,#
5.544170379638672,-12.239288330078123,2.4335007667541504,6.4871978759765625,1.1581664085388184,5.583143711090088,#
3.3068809509277344,-11.071590423583984,1.5337992906570437,6.620362281799316,1.2229161262512207,5.167767524719238,#
1.6701902151107788,-10.832307815551758,2.026720762252808,6.434664726257324,1.3023263216018677,4.313803195953369,#
0.7417750358581543,-9.707681655883787,2.4957141876220703,6.033949375152588,1.3866231441497805,3.4903812408447266,#
0.7417750358581543,-9.707681655883787,2.4957141876220703,5.788388729095459,1.4208307266235352,3.12631630897522,#
1.1222338676452637,-8.12123966217041,2.411965131759644,4.890442848205566,1.5833160877227783,2.522799253463745,#
2.778067111968994,-8.066205024719238,1.5074783563613892,4.348010540008545,2.042673110961914,2.0646636486053467,#
4.110869407653809,-9.054441452026367,0.4594219326972961,4.3846611976623535,2.3419883251190186,1.9547111988067627,#
4.960320949554443,-7.068397998809815,0.1316052377223968,4.967409610748291,2.719491958618164,1.72014582157135,#
4.960320949554443,-7.068397998809815,0.1316052377223968,5.201974868774414,2.839218139648437,1.6016414165496826,#
5.149354457855225,-3.6370904445648193,-1.0121639966964722,4.536151885986328,3.040797472000122,1.48802387714386,#
4.555934429168701,-0.8781659603118896,-1.1006983518600464,2.993151426315308,3.203282833099365,1.3573025465011597,#
4.29750919342041,-0.7130610942840576,-1.1341978311538696,2.337101697921753,3.318122148513794,1.3169866800308228,#
4.139583110809326,-1.00259268283844,-1.3112668991088867,1.3243167400360107,3.547800779342652,1.3340904712677002,#
3.6059837341308594,0.2440679222345352,-2.280359983444214,0.7696675062179565,3.645536422729492,1.37684965133667,#
3.6059837341308594,0.2440679222345352,-2.280359983444214,0.53143709897995,3.676078796386719,1.4196090698242188,#
3.0149567127227783,2.0195422172546387,-4.063012599945068,-0.1441599577665329,3.6149940490722656,1.480693817138672,#
2.63449764251709,4.6995038986206055,-5.656632423400879,-0.9944592714309692,3.3205654621124268,1.414722204208374,#
1.4069796800613403,5.7619171142578125,-6.7932233810424805,-1.3414205312728882,3.2264950275421143,1.3426421880722046,#
0.5647061467170715,6.094519138336182,-6.331408977508545,-1.6016414165496826,2.780576705932617,1.2326897382736206,#
0.5647061467170715,6.094519138336182,-6.331408977508545,-1.5662122964859009,2.5240206718444824,1.0421053171157837,#
0.3349951505661011,6.149554252624512,-5.26181697845459,-1.326760172843933,1.9681499004364011,0.5851916074752808,down
0.2584248483181,7.137789726257324,-5.702096462249756,-1.6089717149734497,1.3866231441497805,0.0855186134576797,down
0.318245381116867,6.082554817199707,-6.726224899291992,-1.8239898681640625,1.148392915725708,-0.1844758540391922,down
1.0480562448501587,4.47697114944458,-7.063612461090088,-2.1966066360473637,0.5937435030937195,-0.7085827589035034,down
1.0480562448501587,4.47697114944458,-7.063612461090088,-2.195384979248047,0.2834331095218658,-0.9675819873809814,down
1.7156537771224976,2.935993194580078,-7.015756130218506,-2.0634419918060303,-0.4434750974178314,-1.4770286083221436,down
2.2468602657318115,1.8233308792114256,-6.544370174407959,-1.955932855606079,-1.3157649040222168,-2.071993827819824,down
2.730210542678833,1.1892328262329102,-6.221338748931885,-1.951046109199524,-1.7824522256851196,-2.4091813564300537,down
3.3379876613616943,0.4761717021465301,-5.714060306549072,-1.9999139308929443,-2.7121615409851074,-3.110434055328369,down
3.744767427444458,-0.277567446231842,-4.924428939819336,-2.1074230670928955,-3.608885526657105,-3.811686754226685,down
3.744767427444458,-0.277567446231842,-4.924428939819336,-2.2063801288604736,-4.054803848266602,-4.1525397300720215,down
4.225724697113037,-2.0171494483947754,-3.1585259437561035,-2.399407863616944,-4.846462249755859,-4.771938800811768,down
5.565705299377441,-4.792823314666748,-1.4069796800613403,-2.438502311706543,-5.51350736618042,-5.357130527496338,down
8.367700576782227,-8.949156761169434,-0.0358923412859439,-2.26990818977356,-5.845808506011963,-5.603912353515625,down
11.30130100250244,-10.23888874053955,5.66620397567749,-1.9376075267791748,-6.636244297027588,-5.985081195831299,down
11.30130100250244,-10.23888874053955,5.66620397567749,-1.5845377445220947,-6.946554660797119,-6.1805524826049805,down
12.545568466186523,-8.898907661437988,9.525827407836914,-1.4513731002807615,-7.426680564880371,-6.424891471862793,down
15.682559967041016,-9.150154113769531,8.394021987915039,-2.305337429046631,-7.50486946105957,-6.341815948486328,down
21.42054748535156,-14.210973739624023,11.17926788330078,-2.53135085105896,-7.363152980804443,-6.402900695800781,down
24.33739852905273,-22.77967071533203,15.88594913482666,-1.5588821172714231,-6.58981990814209,-6.233085632324219,down
21.667007446289062,-19.738391876220703,19.4010066986084,-0.3787252902984619,-5.986302852630615,-5.652780532836914,down
21.667007446289062,-19.738391876220703,19.4010066986084,0.0048867780715227,-5.596582412719727,-5.244734764099121,down
19.03011703491211,-15.926627159118652,21.245872497558597,0.1026223376393318,-4.664429664611816,-4.591127872467041,down
17.283357620239258,-12.124432563781738,19.183259963989254,-0.1881409436464309,-3.760375738143921,-3.9155309200286874,down
18.599411010742188,-12.837493896484377,15.914663314819336,-1.839871883392334,-3.2851364612579346,-3.60399866104126,down
18.254844665527344,-18.616161346435547,14.89292812347412,-3.158080101013184,-1.962041258811951,-2.685284376144409,down
18.254844665527344,-18.616161346435547,14.89292812347412,-2.895415782928467,-1.3328686952590942,-2.201493501663208,down
13.184453964233398,-18.34577178955078,15.838092803955078,-1.2620103359222412,-1.021336555480957,-1.268118977546692,down
11.224730491638184,-14.555541038513184,14.06261920928955,-0.1258345395326614,-0.813648521900177,-0.2125748395919799,down
10.695917129516602,-10.542776107788086,11.164910316467283,-0.031764056533575,-0.6902573704719543,0.2309002727270126,down
9.72921657562256,-8.549554824829102,10.17188835144043,-0.5118899941444397,-0.3494046330451965,0.7965447902679443,down
9.72921657562256,-8.549554824829102,10.17188835144043,-0.8881718516349792,-0.128277912735939,1.0531005859375,down
7.874779224395752,-7.728816509246826,9.686145782470703,-1.2925527095794678,0.1918060332536697,1.1031900644302368,down
6.989434719085693,-6.809973239898682,8.379664421081543,-1.1703832149505615,0.4544703662395477,1.0763128995895386,down
6.393621921539307,-5.587240695953369,6.778866291046143,-1.0384403467178345,0.577861487865448,1.007897973060608,down
5.994020462036133,-5.08953332901001,5.108676433563232,-0.73912513256073,0.7794410586357117,0.8393040895462036,down
5.577669143676758,-5.07517671585083,4.575077056884766,-0.5094466209411621,0.8148701786994934,0.6365028619766235,down
5.8097734451293945,-5.647061824798584,4.53200626373291,-0.411711037158966,0.7782194018363953,0.549762487411499,#
6.436692714691162,-5.233102798461914,4.505684852600098,-0.2638860046863556,0.6658235192298889,0.42270627617836,#
6.745367050170898,-4.783252716064453,3.7734813690185542,-0.1771456897258758,0.554649293422699,0.3469612300395965,#
6.841079711914063,-4.694717884063721,3.019742012023926,-0.2064663618803024,0.53143709897995,0.3090887069702148,#
6.841079711914063,-4.694717884063721,3.019742012023926,-0.388498842716217,0.5473191142082214,0.2162399291992187,#
6.860222339630127,-4.929214477539063,2.3880369663238525,-0.5082249045372009,0.5583143830299377,0.1539334952831268,#
6.776473522186279,-5.0871405601501465,2.1583259105682373,-0.7085827589035034,0.5729747414588928,0.0781884491443634,#
6.774080753326416,-5.070391178131104,2.392822742462158,-0.6988092660903931,0.5424323678016663,-0.0085518611595034,#
6.838686943054199,-5.201996326446533,2.6321046352386475,-0.5338804721832275,0.4178195297718048,-0.1539334952831268,#
7.154539585113525,-5.376672744750977,2.651247262954712,-0.52655029296875,0.31641885638237,-0.2247917801141739,#
7.154539585113525,-5.376672744750977,2.651247262954712,-0.5815265774726868,0.256555825471878,-0.256555825471878,#
7.22153902053833,-5.515456199645996,2.7828526496887207,-0.7452336549758911,0.1685938388109207,-0.2895416021347046,#
7.137789726257324,-5.635097503662109,2.888136863708496,-0.9309312105178832,0.0635281130671501,-0.2993151545524597,#
7.219145774841309,-5.788238048553467,2.935993194580078,-1.022558331489563,0.0329857505857944,-0.2968717515468597,#
7.15932559967041,-5.905486583709717,3.0101709365844727,-1.141062617301941,-0.0183254163712263,-0.2932066619396209,#
7.15932559967041,-5.905486583709717,3.0101709365844727,-1.1654964685440063,-0.0342074446380138,-0.2993151545524597,#
7.180860996246338,-5.819344997406006,2.9766712188720703,-1.225359559059143,-0.069636583328247,-0.3188622593879699,#
7.197610855102539,-5.556134223937988,2.8761727809906006,-1.4391560554504397,-0.0928487852215766,-0.3542913794517517,#
7.561319828033447,-5.266602516174316,2.4885356426239014,-1.6163017749786377,-0.0904053896665573,-0.3738385140895843,#
7.690531730651855,-5.146961212158203,1.9812570810317995,-2.028012752532959,-0.0598630309104919,-0.3994940817356109,#
7.690531730651855,-5.146961212158203,1.9812570810317995,-2.489813327789306,0.0012216945178806,-0.411711037158966,#
7.697710037231445,-5.1637115478515625,1.284945726394653,-2.6926145553588867,0.0439810007810592,-0.4007157981395721,#
7.884350299835205,-5.192424774169922,0.5599204897880554,-3.0395758152008057,0.129499614238739,-0.3310791850090027,#
7.925028324127197,-5.493920803070068,-0.138783723115921,-3.150750160217285,0.1368297785520553,-0.3750602006912231,#
8.02791976928711,-5.795416355133057,-0.5000999569892883,-3.216721534729004,0.1795890927314758,-0.448361873626709,#
8.11406135559082,-5.907878875732422,-0.6340980529785156,-3.148306608200073,0.2089097648859024,-0.3310791850090027,#
8.11406135559082,-5.907878875732422,-0.6340980529785156,-3.046905994415283,0.2467822879552841,-0.3530696928501129,#
7.712067127227783,-6.015556335449219,-0.696311354637146,-2.713383436203003,0.310310423374176,-0.494786262512207,#
7.57806921005249,-6.087340831756592,-0.4689932465553283,-2.2149322032928467,0.3066453039646148,-0.5155550837516785,#
7.429713726043701,-6.2189459800720215,-0.1818545311689376,-1.9253904819488523,0.3005368411540985,-0.5619794726371765,#
7.348358631134033,-6.175874710083008,-0.1316052377223968,-1.368297815322876,0.287098228931427,-0.7635590434074402,#
7.348358631134033,-6.175874710083008,-0.1316052377223968,-1.1117420196533203,0.2577775418758392,-0.8502993583679199,#
7.446464061737059,-6.120840072631836,-0.0885344371199607,-0.6536065340042114,0.2211267054080963,-1.0054545402526855,#
7.714460372924805,-6.137589931488037,0.3565305471420288,-0.2797680497169494,0.2553341388702392,-1.1520578861236572,#
8.38684368133545,-6.544370174407959,0.4833501875400543,-0.1356080919504165,0.282211422920227,-1.1826002597808838,#
8.425127983093262,-6.3529438972473145,0.3661018908023834,0.1026223376393318,0.3836120665073395,-1.2082558870315552,#
8.453842163085938,-5.840879917144775,0.1004985496401786,0.069636583328247,0.5070031881332397,-1.180156946182251,#
8.453842163085938,-5.840879917144775,0.1004985496401786,-0.0452026948332786,0.5399889945983887,-1.1862653493881226,#
8.549554824829102,-5.781059265136719,-0.0478564500808715,-0.4104893505573272,0.549762487411499,-1.1532796621322632,#
8.695517539978027,-6.010770320892334,-0.0622133873403072,-0.6267292499542236,0.5522059202194214,-1.1227372884750366,#
8.764908790588379,-6.082554817199707,-0.2153540551662445,-1.022558331489563,0.5436540246009827,-1.0714260339736938,#
8.606983184814453,-6.228517532348633,-0.2847459018230438,-1.2986613512039185,0.5338804721832275,-1.022558331489563,#
8.606983184814453,-6.228517532348633,-0.2847459018230438,-1.4110571146011353,0.52655029296875,-0.98590749502182,#
8.60219669342041,-6.31944465637207,-0.4235295951366424,-1.4770286083221436,0.5021164417266846,-0.9382613897323608,#
8.57348346710205,-6.419942855834961,-0.6101697683334351,-1.435490965843201,0.4471401870250702,-0.8576295375823975,#
8.585447311401367,-6.470191955566406,-0.861416220664978,-1.3524158000946045,0.4251496791839599,-0.8295305371284485,#
8.49452018737793,-6.360122680664063,-0.8303093910217285,-1.141062617301941,0.388498842716217,-0.7879929542541504,#
8.49452018737793,-6.360122680664063,-0.8303093910217285,-0.8515210747718811,0.3396310806274414,-0.7146912813186646,#
8.528019905090332,-6.238089084625244,-0.7776673436164856,-0.707361102104187,0.2968717515468597,-0.6719319820404053,#
8.563912391662598,-6.147161483764648,-0.7393822073936462,-0.4349232316017151,0.2345653474330902,-0.5705313086509705,#
8.800802230834961,-5.948556900024414,-0.6269195079803467,-0.310310423374176,0.2064663618803024,-0.5204418301582336,#
8.673982620239258,-5.639883518218994,-0.6125625967979431,-0.1600419729948043,0.1466033309698104,-0.416597843170166,#
8.528019905090332,-5.345565319061279,-0.7082754969596863,-0.1038440242409706,0.130721315741539,-0.2773246467113495,#
8.528019905090332,-5.345565319061279,-0.7082754969596863,-0.1111741960048675,0.0989572554826736,-0.2235700935125351,#
8.685946464538574,-5.07517671585083,-0.7465606331825256,-0.1698155403137207,0.0586413368582725,-0.1075091138482093,#
8.901299476623535,-5.003392219543457,-0.6699903011322021,-0.2492256760597229,0.0378725305199623,-0.0122169442474842,#
9.20040225982666,-4.986642360687256,-0.6460621356964111,-0.2895416021347046,0.0439810007810592,0.0195471122860908,#
8.97787094116211,-4.9435715675354,-0.5359922647476196,-0.3616215586662292,0.0671931952238082,0.0781884491443634,#
8.97787094116211,-4.9435715675354,-0.5359922647476196,-0.3811686933040619,0.0647498071193695,0.1136175915598869,#
8.894121170043945,-4.843072891235352,-0.5886343717575073,-0.388498842716217,0.0415376126766204,0.1221694499254226,#
8.987441062927246,-4.8191447257995605,-0.5000999569892883,-0.365286648273468,0.0244338884949684,0.1588202863931656,#
8.951549530029297,-4.804787635803223,-0.3613162040710449,-0.3432961404323578,0.0097735561430454,0.1624853760004043,#
8.707481384277344,-4.78803825378418,-0.3924228847026825,-0.2675510942935943,0.0097735561430454,0.1747023165225982,#
8.774479866027832,-4.778466701507568,-0.3445664942264557,-0.1649287492036819,-0.0439810007810592,0.1869192570447921,#
8.774479866027832,-4.778466701507568,-0.3445664942264557,-0.1050657257437706,-0.0488677769899368,0.2028012871742248,#
8.731410026550293,-4.673182487487793,-0.3469592928886413,0.0085518611595034,-0.0916270837187767,0.2101314514875412,#
8.784051895141602,-4.599005222320557,-0.3158525824546814,0.0891837030649185,-0.1185043603181839,0.2186833024024963,#
8.858229637145996,-4.395615100860596,-0.2488535493612289,0.1111741960048675,-0.123391143977642,0.2272351831197738,#
8.989834785461426,-4.390829563140869,-0.2392822504043579,0.130721315741539,-0.1343863904476165,0.2333436459302902,#
8.989834785461426,-4.390829563140869,-0.2392822504043579,0.1331647038459777,-0.1343863904476165,0.235787034034729,#
8.94676399230957,-4.4004011154174805,-0.3589234054088592,0.1331647038459777,-0.1343863904476165,0.2370087206363678,#
9.04726219177246,-4.268795490264893,-0.3924228847026825,0.1319430023431778,-0.1221694499254226,0.2272351831197738,#
9.107083320617676,-4.216153621673584,-0.3780659735202789,0.1148392781615257,-0.130721315741539,0.2223483920097351,#
8.975478172302246,-4.204189300537109,-0.2656033039093017,0.0842969194054603,-0.1026223376393318,0.2394521236419677,#
8.975478172302246,-4.204189300537109,-0.2656033039093017,0.0733016654849052,-0.1026223376393318,0.2321219593286514,#
8.896513938903809,-4.192224979400635,-0.2512463629245758,0.0794101431965828,-0.1099525094032287,0.2296785563230514,#
8.934800148010254,-4.180261135101318,-0.2560320198535919,0.1062874197959899,-0.1246128380298614,0.2162399291992187,#
8.903693199157715,-4.1659040451049805,-0.2799602448940277,0.1160609796643257,-0.1221694499254226,0.2052446752786636,#
8.865407943725586,-4.156332969665527,-0.236889436841011,0.1368297785520553,-0.1185043603181839,0.1722589135169983,#
8.848658561706543,-4.07258415222168,-0.2033899277448654,0.1502684205770492,-0.1026223376393318,0.1319430023431778,#
8.848658561706543,-4.07258415222168,-0.2033899277448654,0.1502684205770492,-0.0940704718232154,0.1111741960048675,#
8.834300994873047,-4.1730828285217285,-0.2991028428077698,0.1453816443681717,-0.0769667476415634,0.0733016654849052,#
8.848658561706543,-4.115654945373535,-0.229710966348648,0.130721315741539,-0.0549762547016143,0.0476460866630077,#
8.855835914611816,-4.161118507385254,-0.2321037948131561,0.1197260618209838,-0.0464243926107883,0.0378725305199623,#
8.827122688293457,-4.1036906242370605,-0.2847459018230438,0.0940704718232154,-0.031764056533575,0.0280989725142717,#
8.827122688293457,-4.1036906242370605,-0.2847459018230438,0.0818535313010215,-0.0232121963053941,0.0256555844098329,#
8.800802230834961,-4.153940200805664,-0.2991028428077698,0.0610847249627113,-0.0122169442474842,0.0183254163712263,#
8.901299476623535,-4.156332969665527,-0.4259224236011505,0.0415376126766204,-0.0012216945178806,0.0048867780715227,#
8.956335067749023,-4.163511276245117,-0.4283152520656585,0.0293206684291362,0.0048867780715227,-0.0048867780715227,#
8.891729354858398,-4.168296813964844,-0.4331009089946747,0.0122169442474842,0.0183254163712263,-0.0232121963053941,#
8.980262756347656,-4.175475597381592,-0.48574298620224,0.0012216945178806,0.0171037223190069,-0.0439810007810592,#
8.980262756347656,-4.175475597381592,-0.48574298620224,0.0012216945178806,0.0195471122860908,-0.0500894747674465,#
8.934800148010254,-4.2137603759765625,-0.4522434771060943,0.0012216945178806,0.0280989725142717,-0.0549762547016143,#
8.865407943725586,-4.242474555969238,-0.5383850932121277,-0.0024433890357613,0.0256555844098329,-0.0598630309104919,#
8.843873023986816,-4.252045631408691,-0.5312066078186035,-0.0122169442474842,0.0195471122860908,-0.0623064190149307,#
8.879764556884766,-4.268795490264893,-0.5048855543136597,-0.0244338884949684,0.0134386392310261,-0.069636583328247,#
8.879764556884766,-4.268795490264893,-0.5048855543136597,-0.0305423624813556,0.0122169442474842,-0.0733016654849052,#
8.82233715057373,-4.275973796844482,-0.4953142702579498,-0.0378725305199623,0.0122169442474842,-0.0794101431965828,#
8.793622970581055,-4.390829563140869,-0.5000999569892883,-0.0329857505857944,0.0097735561430454,-0.0855186134576797,#
8.884550094604492,-4.4027934074401855,-0.4666004180908203,-0.0268772784620523,0.0085518611595034,-0.0879620015621185,#
8.908478736877441,-4.378865718841553,-0.4187439680099487,-0.0219905003905296,0.007330167107284,-0.0928487852215766,#
8.908478736877441,-4.378865718841553,-0.4187439680099487,-0.0280989725142717,0.0158820282667875,-0.0867403075098991,#
8.863015174865723,-4.398008346557617,-0.3661018908023834,-0.0366508327424526,0.0158820282667875,-0.0855186134576797,#
8.848658561706543,-4.426721572875977,-0.3900300860404968,-0.0525328628718853,0.0085518611595034,-0.0830752253532409,#
8.839086532592773,-4.469792366027832,-0.3469592928886413,-0.0574196390807628,0.0085518611595034,-0.0806318372488021,#
8.913264274597168,-4.5391845703125,-0.4378865361213684,-0.0586413368582725,0.0097735561430454,-0.0818535313010215,#
8.83669376373291,-4.527220726013184,-0.3756731450557709,-0.0537545569241046,0.0122169442474842,-0.0891837030649185,#
8.83669376373291,-4.527220726013184,-0.3756731450557709,-0.0513111688196659,0.0158820282667875,-0.0916270837187767,#
8.855835914611816,-4.424329280853272,-0.3876372575759887,-0.0525328628718853,0.0232121963053941,-0.0928487852215766,#
8.975478172302246,-4.450649738311768,-0.3780659735202789,-0.0574196390807628,0.0244338884949684,-0.0904053896665573,#
8.896513938903809,-4.405186176300049,-0.3589234054088592,-0.0610847249627113,0.0256555844098329,-0.0891837030649185,#
8.975478172302246,-4.465007305145264,-0.3469592928886413,-0.0659715011715889,0.0305423624813556,-0.0806318372488021,#
8.975478172302246,-4.465007305145264,-0.3469592928886413,-0.0671931952238082,0.031764056533575,-0.0781884491443634,#
8.882158279418945,-4.465007305145264,-0.4378865361213684,-0.0610847249627113,0.0280989725142717,-0.0720799788832664,#
8.918049812316895,-4.512863159179688,-0.4474578499794006,-0.0623064190149307,0.0256555844098329,-0.0623064190149307,#
8.939584732055664,-4.54636287689209,-0.3780659735202789,-0.0623064190149307,0.0219905003905296,-0.0574196390807628,#
8.894121170043945,-4.457828521728516,-0.3397807776927948,-0.0647498071193695,0.0171037223190069,-0.0464243926107883,#
8.965906143188477,-4.579862117767334,-0.3684946894645691,-0.0537545569241046,0.0122169442474842,-0.0342074446380138,#
8.965906143188477,-4.579862117767334,-0.3684946894645691,-0.0476460866630077,0.0109952501952648,-0.0280989725142717,#
8.920442581176758,-4.450649738311768,-0.3349951505661011,-0.0366508327424526,0.0048867780715227,-0.0171037223190069,#
8.872586250305176,-4.398008346557617,-0.3613162040710449,-0.0342074446380138,0.0061084721237421,-0.007330167107284,#
8.810372352600098,-4.54636287689209,-0.3637090623378753,-0.0366508327424526,0.0097735561430454,-0.0048867780715227,#
8.85105037689209,-4.49132776260376,-0.3493521213531494,-0.0464243926107883,0.0122169442474842,-0.0048867780715227,#
8.85105037689209,-4.49132776260376,-0.3493521213531494,-0.0488677769899368,0.0122169442474842,-0.0048867780715227,#
8.872586250305176,-4.522434711456299,-0.3254238963127136,-0.0476460866630077,0.0146603342145681,-0.003665083553642,#
8.779266357421875,-4.498506546020508,-0.3278167247772217,-0.0390942245721817,0.0183254163712263,0.003665083553642,#
8.781659126281738,-4.503292083740234,-0.3230310678482055,-0.0342074446380138,0.0146603342145681,0.007330167107284,#
8.803194999694824,-4.503292083740234,-0.3302095234394073,-0.0256555844098329,0.0097735561430454,0.0158820282667875,#
8.803194999694824,-4.503292083740234,-0.3302095234394073,-0.0195471122860908,0.0134386392310261,0.0268772784620523,#
8.774479866027832,-4.467400074005127,-0.3637090623378753,-0.0207688063383102,0.0158820282667875,0.031764056533575,#
8.83669376373291,-4.493720531463623,-0.3326023519039154,-0.0280989725142717,0.0158820282667875,0.0427593067288398,#
8.843873023986816,-4.493720531463623,-0.4163511395454407,-0.0342074446380138,0.0171037223190069,0.0476460866630077,#
8.82233715057373,-4.500899314880371,-0.3876372575759887,-0.0452026948332786,0.0232121963053941,0.0610847249627113,#
8.918049812316895,-4.426721572875977,-0.380458801984787,-0.0525328628718853,0.0195471122860908,0.0720799788832664,#
8.918049812316895,-4.426721572875977,-0.380458801984787,-0.0525328628718853,0.0171037223190069,0.0769667476415634,#
8.84626579284668,-4.4004011154174805,-0.3565305471420288,-0.0476460866630077,0.0171037223190069,0.0842969194054603,#
8.827122688293457,-4.383650779724121,-0.48574298620224,-0.0464243926107883,0.0158820282667875,0.0867403075098991,#
8.748159408569336,-4.390829563140869,-0.4474578499794006,-0.0415376126766204,0.0122169442474842,0.0842969194054603,#
8.69791030883789,-4.311866760253906,-0.4498506784439087,-0.031764056533575,0.0061084721237421,0.0818535313010215,#
8.69791030883789,-4.311866760253906,-0.4498506784439087,-0.0256555844098329,0.0061084721237421,0.0794101431965828,#
8.71466064453125,-4.292723655700684,-0.4354937374591827,-0.0207688063383102,-0.0109952501952648,0.0745233595371246,#
8.733802795410156,-4.280759334564209,-0.4689932465553283,-0.0122169442474842,-0.0122169442474842,0.0671931952238082,#
8.733802795410156,-4.271188735961914,-0.4259224236011505,-0.0061084721237421,-0.0146603342145681,0.0623064190149307,#
8.748159408569336,-4.25922441482544,-0.5288137793540955,-0.0061084721237421,-0.0183254163712263,0.0500894747674465,#
8.82233715057373,-4.168296813964844,-0.5144568681716919,-0.0048867780715227,-0.0219905003905296,0.0342074446380138,#
8.82233715057373,-4.168296813964844,-0.5144568681716919,-0.0097735561430454,-0.0232121963053941,0.0232121963053941,#
8.908478736877441,-4.177868366241455,-0.4977070987224579,-0.0146603342145681,-0.0256555844098329,0.0012216945178806,#
8.999405860900879,-4.211367607116699,-0.6293123364448547,-0.0109952501952648,-0.031764056533575,-0.0390942245721817,#
9.205188751220703,-4.409972190856934,-0.5575276613235474,0.0061084721237421,-0.0525328628718853,-0.0659715011715889,#
9.19561767578125,-4.886143684387207,-0.4163511395454407,0.0256555844098329,-0.0830752253532409,-0.1270562261343002,#
9.19561767578125,-4.886143684387207,-0.4163511395454407,0.0464243926107883,-0.1038440242409706,-0.152711808681488,#
8.853443145751953,-5.996413230895996,0.114855483174324,0.1185043603181839,-0.1563768982887268,-0.1698155403137207,#
8.188239097595215,-7.980063438415527,1.373480200767517,0.2492256760597229,-0.1221694499254226,-0.0293206684291362,#
7.776673316955566,-11.212766647338867,2.648854732513428,0.3921639025211334,-0.0659715011715889,0.0757450610399246,#
8.281558990478516,-13.313664436340332,2.115255117416382,0.5570926666259766,-0.1123958900570869,0.3921639025211334,#
8.281558990478516,-13.313664436340332,2.115255117416382,0.5351021885871887,-0.2235700935125351,0.9211575984954834,#
9.616753578186035,-14.708681106567385,2.045863389968872,0.4972296357154846,-0.1905843466520309,1.2473500967025757,#
10.963912963867188,-17.651853561401367,2.6943180561065674,0.6218425035476685,-0.0794101431965828,1.9522677659988403,#
11.631510734558104,-19.0588321685791,3.2997026443481445,0.6633800864219666,-0.0268772784620523,2.337101697921753,#
11.842079162597656,-17.623138427734375,2.933600425720215,0.8502993583679199,0.0390942245721817,3.059123039245605,#
12.212966918945312,-16.890933990478516,2.756531953811645,1.0494356155395508,0.1270562261343002,3.665083408355713,#
12.212966918945312,-16.890933990478516,2.756531953811645,1.115407109260559,0.1795890927314758,3.909422397613525,#
12.602996826171877,-16.876577377319336,2.3330020904541016,1.280335783958435,0.282211422920227,4.3028082847595215,#
12.437891960144045,-15.50788402557373,1.7802598476409912,1.549108624458313,0.3542913794517517,4.559363842010498,#
11.44008445739746,-12.79920768737793,2.622533798217773,1.6639479398727417,0.42270627617836,4.638773918151856,#
11.44008445739746,-12.79920768737793,2.622533798217773,1.8655275106430051,0.6255075931549072,4.687641620635986,#
10.868200302124023,-11.514263153076172,3.1824538707733154,1.9437159299850464,0.7708892226219177,4.687641620635986,#
10.336994171142578,-10.1336030960083,3.086741209030152,1.8606407642364504,1.141062617301941,4.7108540534973145,#
9.767501831054688,-8.566305160522461,2.6943180561065674,1.5991979837417605,1.5637688636779783,4.703523635864258,#
9.004191398620605,-7.080362319946289,1.9142580032348635,1.385401487350464,1.7910041809082031,4.691306591033936,#
7.862814903259277,-5.709274768829346,0.6364907622337341,0.873511552810669,2.296785831451416,4.599679470062256,#
7.862814903259277,-5.709274768829346,0.6364907622337341,0.2993151545524597,2.80256724357605,4.5227131843566895,#
6.343372344970703,-4.395615100860596,-1.2490534782409668,-0.0623064190149307,3.009033679962158,4.47750997543335,#
4.577469348907471,-3.2997026443481445,-2.6536402702331543,-0.813648521900177,3.3254523277282715,4.3871049880981445,#
2.971885919570923,-2.9383859634399414,-3.6370904445648193,-1.2045906782150269,3.462282180786133,4.191633701324463,#
1.7132610082626345,-2.364108800888061,-5.158926010131836,-1.273005723953247,3.506263017654419,4.098784923553467,#
1.7132610082626345,-2.364108800888061,-5.158926010131836,-1.539335012435913,3.5746781826019287,3.931412696838379,#
0.97148597240448,-2.203789472579956,-6.10887622833252,-1.8337633609771729,3.5453574657440186,3.816573619842529,left
0.9451649785041808,-3.641876220703125,-5.663811206817627,-2.438502311706543,3.4146358966827397,3.611328840255737,left
0.5886343717575073,-5.288137912750244,-6.494120597839356,-2.895415782928467,3.324230670928955,3.495267868041992,left
0.3254238963127136,-3.7734813690185542,-8.724230766296387,-3.0102550983428955,3.3511078357696533,3.442734956741333,left
0.3254238963127136,-3.7734813690185542,-8.724230766296387,-3.330339193344116,2.990708112716675,3.173962354660034,left
-0.8566305041313171,-1.5170495510101318,-9.882357597351074,-3.728611469268799,2.4812614917755127,2.71460509300232,left
-2.543570280075073,-0.7824530005455017,-10.353742599487305,-3.8776583671569824,2.2173755168914795,2.469044685363769,left
-2.878565788269043,-1.4859429597854614,-10.86341381072998,-3.838564157485962,1.5124578475952148,1.817881464958191,left
-2.380858421325684,-2.57228422164917,-11.593226432800291,-3.694404363632202,1.0152281522750854,1.3988401889801023,left
-2.3258235454559326,-2.888136863708496,-13.088740348815918,-3.173962354660034,-0.1197260618209838,0.7256865501403809,left
-2.3258235454559326,-2.888136863708496,-13.088740348815918,-2.7817983627319336,-0.95658677816391,0.1490467190742492,left
-1.7347965240478516,-3.084348201751709,-14.038690567016602,-2.537459373474121,-1.3340904712677002,-0.1771456897258758,left
-0.7154539823532104,-3.507878065109253,-14.73739528656006,-2.290677070617676,-2.309002637863159,-0.8551861643791199,left
-0.9284151792526244,-4.441079139709473,-14.203795433044434,-2.5411245822906494,-3.2826929092407227,-1.48802387714386,left
-0.7010970115661621,-6.209374904632568,-12.942776679992676,-2.783020257949829,-3.746937036514282,-1.806886076927185,left
-0.7010970115661621,-6.209374904632568,-12.942776679992676,-3.167853593826294,-4.712075233459473,-2.403073072433472,left
2.3880369663238525,-7.872386455535889,-12.971490859985352,-3.140976428985596,-5.228852272033691,-2.785463571548462,left
5.460421085357666,-8.315058708190918,-12.600604057312012,-2.4397237300872803,-6.294170379638672,-3.5184803009033203,left
8.073383331298828,-8.944371223449707,-10.186245918273926,-1.7629051208496094,-7.156686305999756,-4.012044906616211,left
11.298907279968262,-11.447263717651367,-5.458028793334961,-1.525896430015564,-7.583057403564453,-4.246610164642334,left
12.15793228149414,-16.706687927246094,-2.359323024749756,-0.7794410586357117,-8.52864933013916,-4.572802543640137,left
12.15793228149414,-16.706687927246094,-2.359323024749756,0.6108472347259521,-8.84262466430664,-4.56547212600708,left
10.083355903625488,-16.496118545532227,1.660618782043457,1.0897514820098877,-8.655705451965332,-4.1012282371521,left
9.245866775512695,-15.766308784484863,3.8668015003204346,2.065885305404663,-8.535979270935059,-3.3608815670013428,left
9.640682220458984,-13.574482917785645,7.838886737823486,2.3932995796203613,-8.397927284240723,-2.163620948791504,left
8.999405860900879,-9.633503913879396,12.119646072387695,2.637638568878174,-7.563510417938232,-1.626075267791748,left
8.999405860900879,-9.633503913879396,12.119646072387695,2.2442526817321777,-6.313717365264893,-0.6450546979904175,left
6.936792850494385,-6.247659683227539,12.969098091125488,1.751909852027893,-5.656445503234863,-0.2980934381484985,left
5.182853698730469,-6.049055576324463,14.045868873596191,0.2162399291992187,-4.379774570465088,0.2712161839008331,left
4.90528678894043,-7.853243827819824,14.234902381896973,-0.6731536388397217,-3.3046836853027344,0.3603998720645904,left
5.474778175354004,-8.46341323852539,13.349557876586914,-0.7464553117752075,-2.867316722869873,0.3432961404323578,left
5.474778175354004,-8.46341323852539,13.349557876586914,-0.574196457862854,-2.051224946975708,0.4141544103622436,left
4.945964336395264,-8.614161491394043,11.660223960876465,-0.5094466209411621,-1.382958173751831,0.4520269632339477,left
3.9912283420562735,-9.193224906921388,9.91107177734375,-0.577861487865448,-1.1105202436447144,0.4544703662395477,left
2.71346116065979,-9.877571105957031,8.729016304016113,-0.6096255779266357,-0.6316159963607788,0.4361449182033539,#
1.7180466651916504,-10.29870891571045,8.520841598510742,-0.5900784730911255,-0.4141544103622436,0.4312581717967987,#
0.8709874749183655,-9.53779125213623,8.248059272766113,-0.4190412163734436,-0.0561979450285434,0.3982723951339721,#
0.8709874749183655,-9.53779125213623,8.248059272766113,-0.1856975704431533,0.2443388998508453,0.3042019307613373,#
-0.6699903011322021,-8.592625617980957,7.209574222564697,-0.0378725305199623,0.3872771561145782,0.2443388998508453,#
-1.9884356260299685,-7.874779224395752,5.924628734588623,0.3139754831790924,0.652384877204895,0.1111741960048675,#
-1.940579175949097,-7.317252159118652,4.993820667266846,0.5607577562332153,0.7598939538002014,-0.0549762547016143,#
-1.7730815410614014,-7.704888820648193,4.350151538848877,0.546097457408905,0.7757760286331177,-0.1356080919504165,#
-1.7730815410614014,-7.704888820648193,4.350151538848877,0.2785463333129883,0.8270871639251709,-0.282211422920227,#
-1.8951154947280884,-8.374878883361816,3.620340585708618,0.123391143977642,0.8942803740501404,-0.3432961404323578,#
-1.6510475873947144,-8.989834785461426,3.098705530166626,-0.0024433890357613,0.9724688529968262,-0.4312581717967987,#
-1.5433706045150757,-8.853443145751953,2.548356056213379,0.0232121963053941,0.9419264793395996,-0.4520269632339477,#
-1.832902193069458,-8.819944381713867,2.667997360229492,-0.007330167107284,0.926044464111328,-0.4312581717967987,#
-1.6247265338897705,-8.922836303710938,3.072384119033813,-0.1514901220798492,0.9382613897323608,-0.3823903799057007,#
-1.6247265338897705,-8.922836303710938,3.072384119033813,-0.1881409436464309,0.8906152844429016,-0.3249707520008087,#
-1.495514154434204,-8.82233715057373,3.122633695602417,-0.1160609796643257,0.8539644479751587,-0.2980934381484985,#
-1.919043779373169,-8.305487632751465,3.1896328926086426,0.0940704718232154,0.8674030900001526,-0.2968717515468597,#
-1.3519448041915894,-7.855636119842529,3.5748770236968994,0.2089097648859024,0.8857284784317017,-0.2895416021347046,#
0.1004985496401786,-7.798208713531494,3.988835573196411,0.2199050188064575,0.8539644479751587,-0.2834331095218658,#
0.1004985496401786,-7.798208713531494,3.988835573196411,0.2382304221391677,0.8087617754936218,-0.2736595571041107,#
0.9619146585464478,-7.465606689453125,4.065405368804932,0.3017585575580597,0.8393040895462036,-0.2724378705024719,#
0.6125625967979431,-7.042076587677002,3.957728624343872,0.5790832042694092,0.9529216885566713,-0.2907632887363434,#
0.6747759580612183,-6.307480335235596,3.6323046684265137,1.0811996459960938,1.1740483045578003,-0.3567348122596741,#
1.801795244216919,-5.623133182525635,3.211168050765991,1.257123589515686,1.233911395072937,-0.3970507085323334,#
1.801795244216919,-5.623133182525635,3.211168050765991,1.5503302812576294,1.2094775438308716,-0.4850127100944519,#
3.022134780883789,-4.950750350952148,2.871387243270874,1.3035480976104736,1.2974395751953125,-0.549762487411499,#
2.895315170288086,-4.979463577270508,2.7661027908325195,1.021336555480957,1.359745979309082,-0.5717529654502869,#
1.4787644147872925,-5.496313571929932,2.711068153381348,0.4385882914066314,1.627297043800354,-0.7660024166107178,#
0.6269195079803467,-6.092126369476318,2.447857618331909,0.175924003124237,1.8349851369857788,-0.8515210747718811,#
1.9884356260299685,-6.601797103881836,2.3186452388763428,-0.2846547961235046,2.1245267391204834,-1.0628741979599,#
1.9884356260299685,-6.601797103881836,2.3186452388763428,-0.5118899941444397,2.103757858276367,-1.2974395751953125,#
3.297309637069702,-6.525227069854736,2.2947168350219727,-0.5106682777404785,2.0866541862487797,-1.3988401889801023,#
2.1200408935546875,-6.721438884735107,1.660618782043457,-0.4385882914066314,2.3615353107452397,-1.58942449092865,#
0.4019941985607147,-7.3363938331604,0.8255237936973572,-0.3897205293178558,2.835552930831909,-1.940050840377808,#
0.3397807776927948,-6.86979341506958,0.3014956414699554,-0.4556920528411865,2.9748260974884038,-2.1795029640197754,#
0.3397807776927948,-6.86979341506958,0.3014956414699554,-0.6914790868759155,2.9577224254608154,-2.6193130016326904,#
1.998006820678711,-8.111669540405273,-0.1339980661869049,-0.7941014170646667,2.85509991645813,-2.8880856037139893,#
2.71346116065979,-10.497312545776367,-0.7800601720809937,-1.1105202436447144,2.7695813179016118,-3.2961316108703613,#
2.864208698272705,-11.947362899780272,-1.4644075632095337,-1.4183871746063232,2.9589438438415527,-3.535583972930908,#
2.943171739578247,-11.55015468597412,-1.969292998313904,-1.650509238243103,3.0249156951904297,-3.6052205562591553,#
3.046063184738159,-11.583653450012209,-3.1513471603393555,-1.951046109199524,2.97604775428772,-3.728611469268799,#
3.046063184738159,-11.583653450012209,-3.1513471603393555,-2.0267910957336426,2.954057216644287,-3.814130306243897,#
3.517449140548706,-11.899507522583008,-3.5030922889709477,-2.080545663833618,2.886864185333252,-3.80679988861084,#
3.352344274520874,-11.90668487548828,-3.7902309894561768,-2.318776130676269,2.7207136154174805,-3.7799227237701416,#
2.792424201965332,-12.155539512634276,-3.998406410217285,-2.3798608779907227,2.473931312561035,-3.790918111801148,#
3.002992391586304,-11.854043006896973,-2.8522443771362305,-2.363978862762451,2.315110921859741,-3.7823660373687744,#
3.002992391586304,-11.854043006896973,-2.8522443771362305,-2.5240206718444824,1.9412726163864136,-3.771370887756348,#
4.333401679992676,-11.767902374267578,-2.3330020904541016,-2.6840627193450928,1.7812305688858032,-3.74815845489502,#
5.685347080230713,-11.796616554260254,-2.8187451362609863,-2.880755424499512,1.4990191459655762,-3.624767541885376,#
6.5180487632751465,-11.624333381652832,-3.383451223373413,-2.809897422790528,1.2998830080032349,-3.4402916431427,#
7.101897716522217,-11.140981674194336,-4.280759334564209,-2.6828410625457764,1.268118977546692,-3.2594807147979736,#
7.101897716522217,-11.140981674194336,-4.280759334564209,-2.1098663806915283,1.2559019327163696,-3.1287596225738525,#
7.805387496948242,-11.04766082763672,-4.7952165603637695,-1.3988401889801023,1.0934165716171265,-3.009033679962158,#
8.372486114501953,-10.54038429260254,-4.371686935424805,-1.180156946182251,1.0091196298599243,-2.971161127090454,#
8.788837432861328,-10.961520195007324,-4.216153621673584,-0.7794410586357117,0.9309312105178832,-2.9406187534332275,#
9.26740264892578,-10.588239669799805,-3.45045018196106,-0.5375455617904663,0.9028322100639344,-2.9112977981567383,#
8.848658561706543,-9.719645500183104,-2.806780815124512,-0.1930277347564697,0.8197570443153381,-2.7084968090057373,#
8.848658561706543,-9.719645500183104,-2.806780815124512,0.0268772784620523,0.7647807598114014,-2.647412061691284,#
8.918049812316895,-9.365508079528809,-2.1750757694244385,0.1832541674375534,0.730573296546936,-2.542346239089966,#
9.152545928955078,-9.355937004089355,-1.447657585144043,0.416597843170166,0.6120689511299133,-2.392077684402466,#
8.992227554321289,-8.872586250305176,-0.9140582084655762,0.4923428893089294,0.5986303091049194,-2.1367435455322266,#
8.398807525634766,-8.094919204711914,-1.1772687435150146,0.5143333673477173,0.5375455617904663,-2.040229797363281,#
8.398807525634766,-8.094919204711914,-1.1772687435150146,0.3298574984073639,0.5827482342720032,-1.8814095258712769,#
8.415557861328125,-7.642674922943115,-1.3519448041915894,0.2382304221391677,0.5900784730911255,-1.771456956863403,#
8.614161491394043,-6.994220733642578,-1.2705888748168943,0.0012216945178806,0.5216635465621948,-1.452594757080078,#
8.788837432861328,-6.570690631866455,-1.0241280794143677,-0.3298574984073639,0.4471401870250702,-1.1997039318084717,#
9.028119087219238,-6.467799663543701,-0.902094066143036,-0.4874561131000519,0.4288147687911987,-1.123958945274353,#
9.305686950683594,-6.530013084411621,-0.794417142868042,-0.8222004175186157,0.4837909936904907,-0.9749122262001038,#
9.305686950683594,-6.530013084411621,-0.794417142868042,-1.0726476907730105,0.4581354260444641,-0.7550071477890015,#
9.116654396057127,-6.463014125823975,-0.97148597240448,-1.1606097221374512,0.448361873626709,-0.6108472347259521,#
8.805586814880371,-6.405585765838623,-0.9547362923622132,-1.257123589515686,0.4642439186573028,-0.5326588153839111,#
8.745766639709473,-6.238089084625244,-0.9092726111412048,-1.2583452463150024,0.3787252902984619,-0.3762818872928619,#
8.73619556427002,-6.183053970336914,-0.9044869542121888,-1.2094775438308716,0.3286358118057251,-0.2944283783435821,#
8.73619556427002,-6.183053970336914,-0.9044869542121888,-1.031110167503357,0.2455605864524841,-0.1673721522092819,#
8.82233715057373,-6.015556335449219,-0.7034898400306702,-0.9064972996711732,0.1832541674375534,-0.1075091138482093,#
8.886943817138672,-5.733203411102295,-0.6508477926254272,-0.634059488773346,0.0733016654849052,-0.0085518611595034,#
8.764908790588379,-5.446063995361328,-0.7752745151519775,-0.3628432750701904,-0.003665083553642,0.0904053896665573,#
8.839086532592773,-5.137389659881592,-0.696311354637146,-0.2504473626613617,-0.0342074446380138,0.1380514800548553,#
8.839086532592773,-5.137389659881592,-0.696311354637146,-0.0989572554826736,-0.100178949534893,0.1966928243637085,#
8.920442581176758,-4.922036170959473,-0.7465606331825256,-0.031764056533575,-0.1246128380298614,0.2260134816169738,#
8.889336585998535,-4.855037212371826,-0.6580261588096619,-0.0207688063383102,-0.1343863904476165,0.2309002727270126,#
8.901299476623535,-4.814359188079834,-0.6221339106559753,-0.0158820282667875,-0.1380514800548553,0.2394521236419677,#
8.815157890319824,-4.7952165603637695,-0.7130610942840576,-0.0219905003905296,-0.1319430023431778,0.2431172132492065,#
8.745766639709473,-4.756931304931641,-0.662811815738678,-0.0256555844098329,-0.1185043603181839,0.2516690790653229,#
8.745766639709473,-4.756931304931641,-0.662811815738678,-0.0146603342145681,-0.128277912735939,0.2651077210903168,#
8.73619556427002,-4.610969543457031,-0.672383189201355,-0.0048867780715227,-0.130721315741539,0.2748812437057495,#
8.738588333129883,-4.527220726013184,-0.6436693072319031,0.0195471122860908,-0.1453816443681717,0.2919849753379822,#
8.74337387084961,-4.49132776260376,-0.6245267391204834,0.0452026948332786,-0.1624853760004043,0.3139754831790924,#
8.733802795410156,-4.398008346557617,-0.6412764191627502,0.0537545569241046,-0.1722589135169983,0.3188622593879699,#
8.733802795410156,-4.398008346557617,-0.6412764191627502,0.0781884491443634,-0.1856975704431533,0.31641885638237,#
8.884550094604492,-4.35254430770874,-0.6675975918769836,0.0928487852215766,-0.1893626451492309,0.31641885638237,#
8.908478736877441,-4.390829563140869,-0.5910272002220154,0.1185043603181839,-0.2015795856714248,0.3005368411540985,#
9.083154678344728,-4.448256969451904,-0.5288137793540955,0.1539334952831268,-0.1966928243637085,0.2834331095218658,#
8.930014610290527,-4.244867324829102,-0.6795615553855896,0.1661504507064819,-0.2125748395919799,0.2626643180847168,#
8.944371223449707,-4.211367607116699,-0.6532405614852905,0.1954711079597473,-0.1893626451492309,0.2516690790653229,#
8.944371223449707,-4.211367607116699,-0.6532405614852905,0.2101314514875412,-0.1771456897258758,0.2394521236419677,#
9.042476654052734,-4.168296813964844,-0.6125625967979431,0.2052446752786636,-0.1710372269153595,0.2333436459302902,#
9.001798629760742,-4.146761417388916,-0.6891329884529114,0.1930277347564697,-0.1661504507064819,0.21135313808918,#
8.95394229888916,-4.125226020812988,-0.7178468108177185,0.1808107793331146,-0.1637070626020431,0.199136197566986,#
8.848658561706543,-4.127618789672852,-0.6891329884529114,0.1563768982887268,-0.1478250324726104,0.1747023165225982,#
8.848658561706543,-4.127618789672852,-0.6891329884529114,0.1392731666564941,-0.1356080919504165,0.1478250324726104,#
8.805586814880371,-4.077369689941406,-0.7585247755050659,0.1356080919504165,-0.130721315741539,0.128277912735939,#
8.903693199157715,-4.141976356506348,-0.7106683850288391,0.1380514800548553,-0.1331647038459777,0.0916270837187767,#
8.920442581176758,-4.158725738525391,-0.7130610942840576,0.1514901220798492,-0.1331647038459777,0.0549762547016143,#
8.843873023986816,-4.139583110809326,-0.6101697683334351,0.1588202863931656,-0.130721315741539,0.0366508327424526,#
8.843873023986816,-4.139583110809326,-0.6101697683334351,0.1685938388109207,-0.1343863904476165,-0.0158820282667875,#
8.858229637145996,-4.094119548797607,-0.6149553656578064,0.1747023165225982,-0.1038440242409706,-0.0183254163712263,#
8.889336585998535,-4.120440483093262,-0.6245267391204834,0.1905843466520309,-0.1062874197959899,-0.0329857505857944,#
8.930014610290527,-4.189832210540772,-0.5623133182525635,0.1856975704431533,-0.0965138673782348,-0.0561979450285434,#
8.886943817138672,-4.170689582824707,-0.5862415432929993,0.178367406129837,-0.0891837030649185,-0.0671931952238082,#
8.886943817138672,-4.141976356506348,-0.5910272002220154,0.1490467190742492,-0.0671931952238082,-0.0891837030649185,#
8.886943817138672,-4.141976356506348,-0.5910272002220154,0.1087308079004287,-0.0415376126766204,-0.1123958900570869,#
8.863015174865723,-4.180261135101318,-0.6484549045562744,0.0940704718232154,-0.0268772784620523,-0.1246128380298614,#
8.894121170043945,-4.249652862548828,-0.6795615553855896,0.0537545569241046,-0.003665083553642,-0.1466033309698104,#
8.855835914611816,-4.311866760253906,-0.6699903011322021,0.0195471122860908,0.0232121963053941,-0.155155211687088,#
8.781659126281738,-4.3070807456970215,-0.7274181246757507,-0.003665083553642,0.0354291386902332,-0.1588202863931656,#
8.781659126281738,-4.3070807456970215,-0.7274181246757507,-0.0219905003905296,0.0537545569241046,-0.1502684205770492,#
8.788837432861328,-4.393222332000732,-0.6652047038078308,-0.031764056533575,0.0452026948332786,-0.1685938388109207,#
8.71226692199707,-4.342973232269287,-0.7441678047180176,-0.0329857505857944,0.0671931952238082,-0.1575985848903656,#
8.57348346710205,-4.311866760253906,-0.729810893535614,-0.0415376126766204,0.0598630309104919,-0.1514901220798492,#
8.819944381713867,-4.381258487701416,-0.8063812851905823,-0.0452026948332786,0.0623064190149307,-0.1478250324726104,#
8.906085968017578,-4.450649738311768,-0.7465606331825256,-0.0561979450285434,0.0586413368582725,-0.1429382413625717,#
8.906085968017578,-4.450649738311768,-0.7465606331825256,-0.1099525094032287,0.0537545569241046,-0.1343863904476165,#
8.997013092041016,-4.587040901184082,-0.8135597109794617,-0.1319430023431778,0.0647498071193695,-0.123391143977642,#
8.910871505737305,-4.618147850036621,-0.7369893789291382,-0.1698155403137207,0.0830752253532409,-0.1075091138482093,#
8.769694328308105,-4.666004180908203,-0.705882728099823,-0.1747023165225982,0.0952921733260154,-0.0940704718232154,#
8.915657043457031,-4.713860511779785,-0.5718846321105957,-0.1673721522092819,0.0916270837187767,-0.0891837030649185,#
8.915657043457031,-4.713860511779785,-0.5718846321105957,-0.1466033309698104,0.0757450610399246,-0.0708582773804664,#
8.831908226013184,-4.639683246612549,-0.6891329884529114,-0.1343863904476165,0.0708582773804664,-0.0586413368582725,#
8.757731437683105,-4.773681163787842,-0.5647061467170715,-0.123391143977642,0.0647498071193695,-0.0390942245721817,#
8.841480255126953,-4.613362312316895,-0.6436693072319031,-0.0916270837187767,0.0293206684291362,-0.0366508327424526,#
8.815157890319824,-4.575077056884766,-0.6939185857772827,-0.0684148892760276,0.0659715011715889,-0.0171037223190069,#
8.815157890319824,-4.575077056884766,-0.6939185857772827,-0.0537545569241046,0.0659715011715889,-0.0061084721237421,#
8.733802795410156,-4.467400074005127,-0.6460621356964111,-0.0586413368582725,0.0598630309104919,-0.0012216945178806,#
8.729016304016113,-4.508078098297119,-0.7226324081420898,-0.0818535313010215,0.0647498071193695,0.0061084721237421,#
8.841480255126953,-4.500899314880371,-0.696311354637146,-0.0855186134576797,0.0586413368582725,0.0061084721237421,#
8.882158279418945,-4.536791324615479,-0.8207381367683411,-0.0733016654849052,0.0561979450285434,0.0024433890357613,#
8.738588333129883,-4.479363918304443,-0.7992027401924133,-0.040315918624401,0.0488677769899368,-0.003665083553642,#
8.738588333129883,-4.479363918304443,-0.7992027401924133,-0.0134386392310261,0.0476460866630077,-0.0085518611595034,#
8.874979019165039,-4.431507587432861,-0.794417142868042,-0.007330167107284,0.0427593067288398,-0.0085518611595034,#
8.776873588562012,-4.342973232269287,-0.8159525394439697,-0.0122169442474842,0.0354291386902332,-0.0024433890357613,#
8.910871505737305,-4.381258487701416,-0.7824530005455017,-0.0280989725142717,0.0256555844098329,0.003665083553642,#
8.848658561706543,-4.419543266296387,-0.8135597109794617,-0.031764056533575,0.0219905003905296,0.0085518611595034,#
8.848658561706543,-4.419543266296387,-0.8135597109794617,-0.0354291386902332,0.0158820282667875,0.0158820282667875,#
8.853443145751953,-4.323830604553223,-0.7800601720809937,-0.0342074446380138,0.0097735561430454,0.0171037223190069,#
8.810372352600098,-4.398008346557617,-0.7657032012939453,-0.0354291386902332,0.0097735561430454,0.0146603342145681,#
8.853443145751953,-4.405186176300049,-0.6891329884529114,-0.0219905003905296,-0.0061084721237421,0.007330167107284,#
8.896513938903809,-4.398008346557617,-0.6891329884529114,-0.0134386392310261,-0.0085518611595034,0.003665083553642,#
8.858229637145996,-4.386044025421143,-0.7130610942840576,-0.0024433890357613,-0.0158820282667875,-0.0048867780715227,#
8.858229637145996,-4.386044025421143,-0.7130610942840576,0.0061084721237421,-0.0219905003905296,-0.0085518611595034,#
8.812766075134277,-4.350151538848877,-0.6771688461303711,0.0097735561430454,-0.0244338884949684,-0.0097735561430454,#
8.877371788024902,-4.35254430770874,-0.638883650302887,0.0158820282667875,-0.0293206684291362,-0.0097735561430454,#
8.886943817138672,-4.35972261428833,-0.5766702890396118,0.0207688063383102,-0.0305423624813556,-0.0134386392310261,#
8.908478736877441,-4.4027934074401855,-0.5694918036460876,0.0305423624813556,-0.0293206684291362,-0.0195471122860908,#
8.908478736877441,-4.4027934074401855,-0.5694918036460876,0.0378725305199623,-0.031764056533575,-0.0268772784620523,#
8.817551612854004,-4.381258487701416,-0.6125625967979431,0.0366508327424526,-0.031764056533575,-0.0305423624813556,#
8.831908226013184,-4.469792366027832,-0.5264209508895874,0.0378725305199623,-0.0256555844098329,-0.0366508327424526,#
8.858229637145996,-4.419543266296387,-0.5790630578994751,0.0354291386902332,-0.0171037223190069,-0.0342074446380138,#
8.870193481445312,-4.508078098297119,-0.5264209508895874,0.031764056533575,-0.0146603342145681,-0.0329857505857944,#
8.870193481445312,-4.508078098297119,-0.5264209508895874,0.0207688063383102,-0.0122169442474842,-0.0232121963053941,#
8.901299476623535,-4.443471908569336,-0.5383850932121277,0.0158820282667875,-0.0085518611595034,-0.0183254163712263,#
8.82951545715332,-4.412364959716797,-0.5862415432929993,0.0146603342145681,-0.0085518611595034,-0.007330167107284,#
8.908478736877441,-4.35972261428833,-0.5982056856155396,0.0244338884949684,-0.0134386392310261,0.0024433890357613,#
8.918049812316895,-4.393222332000732,-0.5862415432929993,0.0268772784620523,-0.0146603342145681,0.007330167107284,#
8.94676399230957,-4.273581027984619,-0.6269195079803467,0.031764056533575,-0.0109952501952648,0.0109952501952648,#
8.94676399230957,-4.273581027984619,-0.6269195079803467,0.0232121963053941,-0.003665083553642,0.0122169442474842,#
8.906085968017578,-4.311866760253906,-0.6460621356964111,0.0183254163712263,-0.0024433890357613,0.0085518611595034,#
8.798408508300781,-4.283152580261231,-0.6652047038078308,0.0134386392310261,0.0048867780715227,0.0012216945178806,#
8.853443145751953,-4.3310089111328125,-0.6364907622337341,0.0183254163712263,0.0061084721237421,0.0012216945178806,#
8.922836303710938,-4.335794448852539,-0.6293123364448547,0.0171037223190069,0.003665083553642,0.0024433890357613,#
8.922836303710938,-4.335794448852539,-0.6293123364448547,0.0183254163712263,0.003665083553642,0.0061084721237421,#
8.889336585998535,-4.371686935424805,-0.5910272002220154,0.0207688063383102,-0.0012216945178806,0.0085518611595034,#
8.894121170043945,-4.347758769989014,-0.6293123364448547,0.0232121963053941,0.003665083553642,0.0122169442474842,#
8.927621841430664,-4.295116424560547,-0.6604190468788147,0.0122169442474842,0.007330167107284,0.0171037223190069,#
8.894121170043945,-4.295116424560547,-0.6580261588096619,0.0012216945178806,0.0061084721237421,0.0183254163712263,#
8.951549530029297,-4.347758769989014,-0.6245267391204834,-0.0207688063383102,0.0061084721237421,0.0244338884949684,#
8.951549530029297,-4.347758769989014,-0.6245267391204834,-0.0256555844098329,0.0048867780715227,0.0280989725142717,#
8.898907661437988,-4.249652862548828,-0.6364907622337341,-0.0171037223190069,0.0024433890357613,0.0268772784620523,#
8.872586250305176,-4.242474555969238,-0.6005984544754028,0.0012216945178806,0.0012216945178806,0.0244338884949684,#
8.920442581176758,-4.256831645965576,-0.5910272002220154,0.0061084721237421,-0.003665083553642,0.0183254163712263,#
8.83669376373291,-4.311866760253906,-0.6460621356964111,0.007330167107284,-0.0048867780715227,0.0146603342145681,#
8.83669376373291,-4.311866760253906,-0.6460621356964111,0.0134386392310261,-0.007330167107284,0.0122169442474842,#
8.848658561706543,-4.280759334564209,-0.6532405614852905,0.0171037223190069,-0.007330167107284,0.0134386392310261,#
8.86780071258545,-4.230510234832764,-0.6508477926254272,0.0146603342145681,-0.0122169442474842,0.0122169442474842,#
8.870193481445312,-4.275973796844482,-0.6939185857772827,0.003665083553642,-0.007330167107284,0.0122169442474842,#
8.841480255126953,-4.271188735961914,-0.6293123364448547,0.0012216945178806,-0.003665083553642,0.0097735561430454,#
8.841480255126953,-4.271188735961914,-0.6293123364448547,-0.0048867780715227,0.0024433890357613,0.007330167107284,#
8.951549530029297,-4.280759334564209,-0.6771688461303711,-0.0061084721237421,0.003665083553642,0.0048867780715227,#
8.863015174865723,-4.3310089111328125,-0.7010970115661621,-0.0122169442474842,0.0061084721237421,0.003665083553642,#
8.944371223449707,-4.311866760253906,-0.6293123364448547,-0.0183254163712263,0.0048867780715227,0.003665083553642,#
8.872586250305176,-4.225724697113037,-0.6699903011322021,-0.0195471122860908,0.0048867780715227,0.0048867780715227,#
8.97787094116211,-4.311866760253906,-0.7226324081420898,-0.0232121963053941,0.0024433890357613,0.0048867780715227,#
8.97787094116211,-4.311866760253906,-0.7226324081420898,-0.0232121963053941,-0.003665083553642,0.0024433890357613,#
8.891729354858398,-4.264009952545166,-0.6675975918769836,-0.0219905003905296,-0.003665083553642,0.0012216945178806,#
8.903693199157715,-4.275973796844482,-0.6269195079803467,-0.0146603342145681,-0.003665083553642,-0.0012216945178806,#
8.941977500915527,-4.182653903961182,-0.6293123364448547,-0.0146603342145681,-0.0024433890357613,-0.0048867780715227,#
8.891729354858398,-4.316651821136475,-0.6891329884529114,-0.0195471122860908,-0.0048867780715227,-0.0061084721237421,#
8.891729354858398,-4.316651821136475,-0.6891329884529114,-0.0293206684291362,-0.0061084721237421,-0.0097735561430454,#
8.915657043457031,-4.264009952545166,-0.696311354637146,-0.0329857505857944,-0.0048867780715227,-0.0122169442474842,#
8.855835914611816,-4.3142595291137695,-0.672383189201355,-0.0342074446380138,-0.0012216945178806,-0.0171037223190069,#
8.843873023986816,-4.268795490264893,-0.7130610942840576,-0.031764056533575,-0.0012216945178806,-0.0183254163712263,#
8.848658561706543,-4.335794448852539,-0.5958128571510315,-0.0293206684291362,-0.0024433890357613,-0.0183254163712263,#
8.817551612854004,-4.302295207977295,-0.7010970115661621,-0.0244338884949684,-0.0109952501952648,-0.0171037223190069,#
8.817551612854004,-4.302295207977295,-0.7010970115661621,-0.0207688063383102,-0.0146603342145681,-0.0171037223190069,#
8.891729354858398,-4.256831645965576,-0.672383189201355,-0.0195471122860908,-0.0158820282667875,-0.0171037223190069,#
8.860621452331543,-4.287938117980957,-0.7010970115661621,-0.0183254163712263,-0.0109952501952648,-0.0207688063383102,#
8.944371223449707,-4.3070807456970215,-0.6915256977081299,-0.0219905003905296,-0.007330167107284,-0.0244338884949684,#
8.927621841430664,-4.347758769989014,-0.6891329884529114,-0.0342074446380138,-0.0012216945178806,-0.0268772784620523,#
8.927621841430664,-4.347758769989014,-0.6891329884529114,-0.0427593067288398,-0.0012216945178806,-0.0256555844098329,#
8.855835914611816,-4.421936511993408,-0.6005984544754028,-0.0439810007810592,0.0012216945178806,-0.0219905003905296,#
8.894121170043945,-4.390829563140869,-0.6340980529785156,-0.0427593067288398,0.0012216945178806,-0.0146603342145681,#
8.85105037689209,-4.273581027984619,-0.7034898400306702,-0.0366508327424526,-0.003665083553642,-0.0061084721237421,#
8.863015174865723,-4.271188735961914,-0.5766702890396118,-0.0354291386902332,-0.0061084721237421,-0.003665083553642,#
8.863015174865723,-4.271188735961914,-0.5766702890396118,-0.031764056533575,-0.0061084721237421,-0.0048867780715227,#
8.841480255126953,-4.249652862548828,-0.5910272002220154,-0.0293206684291362,-0.0012216945178806,-0.0122169442474842,#
8.95394229888916,-4.309473514556885,-0.6005984544754028,-0.0280989725142717,0.003665083553642,-0.0158820282667875,#
8.910871505737305,-4.35972261428833,-0.6197410225868225,-0.031764056533575,0.0097735561430454,-0.0195471122860908,#
9.018548011779783,-4.333401679992676,-0.638883650302887,-0.0342074446380138,0.0085518611595034,-0.0183254163712263,#
8.941977500915527,-4.366901397705078,-0.6915256977081299,-0.0354291386902332,0.0048867780715227,-0.0158820282667875,#
8.941977500915527,-4.366901397705078,-0.6915256977081299,-0.0354291386902332,0.007330167107284,-0.0085518611595034,#
8.927621841430664,-4.371686935424805,-0.6436693072319031,-0.0329857505857944,0.0061084721237421,-0.007330167107284,#
8.901299476623535,-4.302295207977295,-0.6269195079803467,-0.0244338884949684,0.0048867780715227,-0.0097735561430454,#
8.920442581176758,-4.29750919342041,-0.6436693072319031,-0.0171037223190069,0.0012216945178806,-0.0109952501952648,#
8.855835914611816,-4.311866760253906,-0.5623133182525635,-0.0195471122860908,0.0012216945178806,-0.0109952501952648,#
8.855835914611816,-4.311866760253906,-0.5623133182525635,-0.0293206684291362,0.0048867780715227,-0.0097735561430454,#
8.805586814880371,-4.350151538848877,-0.6317051649093628,-0.0293206684291362,0.0061084721237421,-0.0097735561430454,#
8.908478736877441,-4.347758769989014,-0.6460621356964111,-0.0244338884949684,0.0097735561430454,-0.0109952501952648,#
8.901299476623535,-4.223331928253174,-0.6604190468788147,-0.0256555844098329,0.0109952501952648,-0.0122169442474842,#
8.877371788024902,-4.283152580261231,-0.6269195079803467,-0.0293206684291362,0.0122169442474842,-0.0134386392310261,#
8.98265552520752,-4.283152580261231,-0.6197410225868225,-0.031764056533575,0.0109952501952648,-0.0146603342145681,#
8.98265552520752,-4.283152580261231,-0.6197410225868225,-0.0268772784620523,0.007330167107284,-0.0171037223190069,#
8.879764556884766,-4.29033088684082,-0.6101697683334351,-0.0207688063383102,0.0097735561430454,-0.0171037223190069,#
8.94676399230957,-4.268795490264893,-0.7322037816047668,-0.0146603342145681,0.0097735561430454,-0.0183254163712263,#
8.925228118896484,-4.292723655700684,-0.6939185857772827,-0.0195471122860908,0.0061084721237421,-0.0171037223190069,#
8.860621452331543,-4.287938117980957,-0.6652047038078308,-0.0232121963053941,0.007330167107284,-0.0158820282667875,#
8.860621452331543,-4.287938117980957,-0.6652047038078308,-0.0268772784620523,0.0097735561430454,-0.0146603342145681,#
8.889336585998535,-4.275973796844482,-0.6699903011322021,-0.0280989725142717,0.0097735561430454,-0.0158820282667875,#
8.879764556884766,-4.29750919342041,-0.6867401003837585,-0.0280989725142717,0.0048867780715227,-0.0158820282667875,#
8.791230201721191,-4.278366565704346,-0.6987042427062988,-0.0244338884949684,0.0061084721237421,-0.0207688063383102,#
8.776873588562012,-4.364508152008057,-0.6987042427062988,-0.0219905003905296,0.007330167107284,-0.0232121963053941,#
8.776873588562012,-4.364508152008057,-0.6987042427062988,-0.0158820282667875,0.003665083553642,-0.0232121963053941,#
8.73619556427002,-4.328616142272949,-0.6987042427062988,-0.0134386392310261,0.0012216945178806,-0.0244338884949684,#
8.85105037689209,-4.283152580261231,-0.6939185857772827,-0.007330167107284,-0.0048867780715227,-0.0219905003905296,#
8.997013092041016,-4.326223373413086,-0.763310432434082,-0.0085518611595034,-0.0109952501952648,-0.0195471122860908,#
8.949156761169434,-4.390829563140869,-0.6843472719192505,-0.0085518611595034,-0.0122169442474842,-0.0195471122860908,#
8.874979019165039,-4.577469348907471,-0.8111668825149536,-0.0097735561430454,-0.0048867780715227,-0.0232121963053941,#
8.874979019165039,-4.577469348907471,-0.8111668825149536,-0.0122169442474842,-0.0061084721237421,-0.0195471122860908,#
8.968299865722656,-5.027320384979248,-0.8207381367683411,-0.0109952501952648,-0.0146603342145681,-0.0146603342145681,#
9.126225471496582,-5.879165172576904,-0.7704889178276062,0.007330167107284,-0.0476460866630077,0.0427593067288398,#
9.57607650756836,-7.255037784576416,-0.9930213689804076,-0.0867403075098991,-0.0977355539798736,0.2150182276964187,#
10.140782356262209,-9.006584167480469,-1.124626636505127,-0.1466033309698104,-0.1270562261343002,0.3384093642234802,#
10.140782356262209,-9.006584167480469,-1.124626636505127,-0.1734806150197982,-0.129499614238739,0.6694886088371277,#
10.411171913146973,-11.497512817382812,-0.638883650302887,-0.0488677769899368,-0.1087308079004287,0.893058717250824,#
10.600205421447754,-12.98106288909912,-1.4811571836471558,0.0842969194054603,-0.0830752253532409,1.485580563545227,#
10.509278297424316,-15.76870059967041,-2.3258235454559326,0.1575985848903656,-0.1380514800548553,2.208823680877685,#
9.743573188781738,-18.29312896728516,-1.3328022956848145,0.1869192570447921,-0.1392731666564941,2.632751703262329,#
8.630911827087402,-20.295921325683597,-0.5934200286865234,-0.0366508327424526,-0.0366508327424526,3.341334342956543,#
8.630911827087402,-20.295921325683597,-0.5934200286865234,-0.0635281130671501,-0.199136197566986,3.821460485458374,#
8.877371788024902,-23.23670196533203,-0.7178468108177185,0.0952921733260154,-0.3005368411540985,4.192855358123779,#
9.695716857910156,-25.52424049377441,-1.3495519161224363,0.5803048610687256,-0.4324798583984375,5.005282402038574,#
9.580862045288086,-23.76790809631348,-0.380458801984787,1.031110167503357,-0.4642439186573028,5.409663200378418,#
8.817551612854004,-21.798614501953125,-0.2057827562093734,1.8093295097351076,-0.5326588153839111,6.16100549697876,#
8.817551612854004,-21.798614501953125,-0.2057827562093734,1.8166598081588743,-0.4825693070888519,6.826828956604004,#
7.913064479827881,-20.752948760986328,-0.2871387302875519,1.7396929264068604,-0.4349232316017151,7.13958215713501,#
7.058826446533203,-17.946170806884766,-0.4785645008087158,1.83132004737854,-0.3151971697807312,7.605048179626465,#
6.022734642028809,-14.746965408325195,-0.1866401582956314,1.979145050048828,-0.2235700935125351,7.821288108825684,#
4.783252716064453,-11.617154121398926,0.0478564500808715,2.007244110107422,-0.1404948681592941,7.865269184112549,#
4.783252716064453,-11.617154121398926,0.0478564500808715,2.039008140563965,0.0109952501952648,7.756537914276123,#
3.455235719680786,-9.336793899536133,0.2009970992803573,2.071993827819824,0.1050657257437706,7.627038955688477,#
2.053041696548462,-7.527820110321045,0.3756731450557709,1.9913619756698608,0.2626643180847168,7.259308815002441,#
0.3302095234394073,-6.374479293823242,0.0502492748200893,1.9571545124053955,0.4520269632339477,6.655791759490967,#
-1.4500504732131958,-3.730410575866699,-0.935593605041504,1.9608196020126345,0.5448757410049438,6.2990570068359375,#
-3.744767427444458,-1.6319050788879397,-1.2658032178878784,1.7567967176437378,0.7256865501403809,5.520837306976318,#
-3.744767427444458,-1.6319050788879397,-1.2658032178878784,1.30476975440979,0.9626952409744264,4.624114036560059,#
-5.501099109649658,-2.227717876434326,-2.0554347038269043,1.0885297060012815,1.1019684076309204,4.179416656494141,#
-4.737788677215576,-6.537191867828369,-2.139183282852173,1.148392915725708,1.189930438995361,3.0798919200897217,#
-1.06480610370636,-9.44447135925293,-2.447857618331909,0.6670452356338501,0.9248227477073668,2.065885305404663,#
-1.1629117727279663,-7.010970115661621,-5.06799840927124,-0.0952921733260154,0.7733326554298401,1.8215465545654297,#
-1.1629117727279663,-7.010970115661621,-5.06799840927124,-1.1520578861236572,0.6670452356338501,1.6016414165496826,#
-1.648654818534851,-4.835894107818604,-7.054040908813477,-0.8771765828132629,0.4544703662395477,1.3585243225097656,#
0.4450649619102478,-10.808380126953123,-6.898508071899414,-0.1979145109653473,-0.2993151545524597,1.2998830080032349,#
2.5363922119140625,-14.531611442565918,-6.632904052734375,-0.0745233595371246,-0.9675819873809814,1.4428211450576782,counterclockwise
1.852044701576233,-9.31765079498291,-7.396214485168457,0.0342074446380138,-1.2106993198394775,1.673721432685852,counterclockwise
2.311466693878174,-5.335994720458984,-7.178467750549316,1.0799779891967771,-1.7629051208496094,1.8215465545654297,counterclockwise
2.311466693878174,-5.335994720458984,-7.178467750549316,1.4342693090438845,-2.373752355575561,2.019460916519165,counterclockwise
3.81655216217041,-3.601198196411133,-6.154339790344238,1.1826002597808838,-2.626643180847168,2.0964276790618896,counterclockwise
4.572684288024902,-1.641476273536682,-4.744967460632324,0.8564078211784363,-3.1348679065704346,2.1770594120025635,counterclockwise
4.7712883949279785,-0.6915256977081299,-3.4121649265289307,0.7024743556976318,-3.5856733322143555,2.256469488143921,counterclockwise
5.044069766998291,0.0023928226437419,-2.5363922119140625,0.5974085927009583,-3.78358793258667,2.256469488143921,counterclockwise
5.044069766998291,0.0023928226437419,-2.5363922119140625,0.3994940817356109,-4.175751686096191,2.1281917095184326,counterclockwise
5.730810642242432,1.6295121908187866,-1.964507341384888,0.3726168274879455,-4.376109600067139,2.0243477821350098,counterclockwise
6.912864685058594,2.455036163330078,-1.0839486122131348,0.1050657257437706,-4.83668851852417,1.7262543439865112,counterclockwise
7.637890338897705,2.739781856536865,-0.236889436841011,-0.3494046330451965,-5.175097465515137,1.4415994882583618,counterclockwise
8.25284481048584,2.998206615447998,1.361515998840332,-0.5900784730911255,-5.297266960144043,1.2546802759170532,counterclockwise
8.25284481048584,2.998206615447998,1.361515998840332,-1.0836429595947266,-5.449978828430176,0.943148136138916,counterclockwise
8.941977500915527,2.6775684356689453,3.4408791065216064,-1.3194299936294556,-5.458530902862549,0.7696675062179565,counterclockwise
9.540184020996094,2.1894328594207764,4.675575256347656,-1.8362067937850952,-5.318036079406738,0.4153760969638824,counterclockwise
9.93260669708252,1.56251323223114,6.410372257232666,-2.273573398590088,-5.159215927124023,0.0048867780715227,counterclockwise
10.573883056640623,0.4594219326972961,8.422735214233398,-2.381082773208618,-5.037046432495117,-0.2333436459302902,counterclockwise
11.22233772277832,-0.2632104754447937,9.468399047851562,-2.592435598373413,-4.7633867263793945,-0.7366817593574524,counterclockwise
11.22233772277832,-0.2632104754447937,9.468399047851562,-2.7231569290161133,-4.459184646606445,-1.2962177991867063,counterclockwise
11.684152603149414,-1.4811571836471558,11.16012477874756,-2.732930421829224,-4.272265911102295,-1.6138584613800049,counterclockwise
12.308679580688477,-3.058027505874634,13.088740348815918,-2.8514349460601807,-3.6870739459991455,-2.1257483959198,counterclockwise
13.15813159942627,-4.90528678894043,14.569897651672363,-3.070118188858032,-3.022472381591797,-2.5411245822906494,counterclockwise
13.825729370117188,-6.058626651763916,15.282957077026367,-3.147085189819336,-2.702388048171997,-2.7964584827423096,counterclockwise
13.825729370117188,-6.058626651763916,15.282957077026367,-3.3511078357696533,-2.0243477821350098,-3.2448205947875977,counterclockwise
13.72523021697998,-6.501298904418945,14.761322021484377,-3.578343152999878,-1.6334055662155151,-3.429296493530273,counterclockwise
13.521841049194336,-7.515855312347412,14.172688484191896,-3.8776583671569824,-0.8063183426856995,-3.811686754226685,counterclockwise
13.87597942352295,-9.212367057800291,13.706088066101074,-4.049917221069336,-0.1099525094032287,-4.134214401245117,counterclockwise
14.019548416137695,-11.47836971282959,13.665410041809082,-4.137879371643066,0.175924003124237,-4.244166851043701,counterclockwise
14.189438819885254,-12.519248008728027,14.120046615600586,-4.388326644897461,0.7232431173324585,-4.402987003326416,counterclockwise
14.189438819885254,-12.519248008728027,14.120046615600586,-4.682754993438721,1.2168077230453491,-4.393213272094727,counterclockwise
13.741979598999023,-13.280166625976562,13.337594032287598,-4.693750381469727,1.4965757131576538,-4.328463554382324,counterclockwise
12.787243843078612,-14.208581924438477,12.605388641357422,-4.649769306182861,2.0121307373046875,-4.1012282371521,counterclockwise
12.315858840942385,-16.08216094970703,12.04786205291748,-4.637552261352539,2.5435678958892822,-3.7457151412963863,counterclockwise
11.387442588806152,-18.15434455871582,11.621939659118652,-4.538594722747803,2.829444408416748,-3.5111501216888428,counterclockwise
11.387442588806152,-18.15434455871582,11.621939659118652,-4.060912609100342,3.4329614639282227,-3.0017035007476807,counterclockwise
10.303494453430176,-18.97269058227539,10.65523910522461,-3.7970263957977295,3.718837976455689,-2.7207136154174805,counterclockwise
9.351150512695312,-19.836498260498047,9.533005714416504,-3.5050415992736816,4.231949806213379,-2.060998678207397,counterclockwise
8.630911827087402,-20.0207462310791,7.77188777923584,-3.127537727355957,4.701080799102783,-1.273005723953247,counterclockwise
7.781459331512451,-19.39861297607422,5.520241737365723,-2.8734254837036133,4.922206878662109,-0.8722898364067078,counterclockwise
7.781459331512451,-19.39861297607422,5.520241737365723,-2.3212194442749023,5.201974868774414,-0.2443388998508453,counterclockwise
7.429713726043701,-19.31007957458496,3.5054850578308105,-2.085432529449463,5.254508018493652,0.3970507085323334,counterclockwise
7.039684295654297,-19.456039428710938,2.021935224533081,-1.982810139656067,5.250843048095703,0.7476770281791687,counterclockwise
6.601797103881836,-19.08754539489746,0.4809573292732239,-2.1220834255218506,5.12134313583374,1.4904673099517822,counterclockwise
6.204589366912842,-17.83849334716797,-0.7345964908599854,-2.082988977432251,5.006504058837891,1.852088928222656,counterclockwise
5.477170467376709,-16.54876136779785,-1.1988041400909424,-1.72014582157135,4.599679470062256,2.4727096557617188,counterclockwise
5.477170467376709,-16.54876136779785,-1.1988041400909424,-1.3145432472229004,4.120775699615479,2.939396858215332,counterclockwise
4.6301116943359375,-15.237494468688965,-2.531606435775757,-1.2058125734329224,3.908200740814209,3.13608980178833,counterclockwise
3.873979806900024,-13.921442031860352,-3.268595933914185,-0.9382613897323608,3.481829166412353,3.4415132999420166,counterclockwise
3.335594892501831,-12.48574924468994,-3.4097721576690674,-0.6963658928871155,2.9845995903015137,3.647979736328125,counterclockwise
3.1513471603393555,-11.42572784423828,-3.926621913909912,-0.6743753552436829,2.739039182662964,3.755488872528076,counterclockwise
3.1513471603393555,-11.42572784423828,-3.926621913909912,-0.7941014170646667,2.247917890548706,3.9851672649383545,counterclockwise
3.10109806060791,-10.55474090576172,-4.390829563140869,-0.8478559851646423,1.996248722076416,4.118331909179688,counterclockwise
2.368894338607788,-9.454042434692385,-3.785445213317871,-0.6780403852462769,1.4183871746063232,4.242944717407227,counterclockwise
1.5984054803848269,-8.685946464538574,-3.615554809570313,-0.1637070626020431,0.9040539264678956,4.293034553527832,counterclockwise
1.2993026971817017,-7.209574222564697,-3.1752755641937256,0.1343863904476165,0.6413896083831787,4.3467888832092285,counterclockwise
