accX,accY,accZ,gyrX,gyrY,gyrZ,annotation
0.7322037816047668,-8.283952713012695,5.505885124206543,-0.5534276366233826,-0.5216635465621948,-0.100178949534893,#
0.3397807776927948,-10.956734657287598,6.4079790115356445,-1.0274450778961182,-0.4703523814678192,-0.0989572554826736,#
-0.3541377484798431,-11.00459098815918,3.682554006576538,-0.5974085927009583,-0.4019374847412109,-0.3359659910202026,#
-0.5862415432929993,-9.992427825927734,3.292524099349976,1.2387982606887815,-0.0916270837187767,-0.4056025743484497,#
-1.3160523176193235,-8.161917686462402,2.5459630489349365,1.786117434501648,0.3603998720645904,-0.2137965410947799,#
-1.6247265338897705,-9.561718940734863,2.3497519493103027,1.237576603889465,1.200925588607788,0.2235700935125351,#
-1.6247265338897705,-9.561718940734863,2.3497519493103027,0.0500894747674465,1.054322361946106,-0.31641885638237,#
-0.763310432434082,-11.480762481689451,1.5481561422348022,-0.3762818872928619,0.9284878373146056,-0.5424323678016663,#
-0.3062812983989715,-10.439885139465332,1.6127625703811646,-0.3249707520008087,1.0054545402526855,-0.411711037158966,#
-0.8374879360198975,-9.509077072143556,1.6175479888916016,-0.0476460866630077,1.1716049909591677,-0.3200839459896087,#
-1.00259268283844,-9.4061861038208,1.5792629718780518,0.5754181146621704,1.266897201538086,-0.4092676639556885,#
-1.00259268283844,-9.4061861038208,1.5792629718780518,0.4092676639556885,1.2033690214157104,-0.1856975704431533,#
-1.241874933242798,-10.305886268615724,1.8544375896453855,0.1026223376393318,1.2033690214157104,-0.1148392781615257,#
-1.043270707130432,-10.928021430969238,1.730010747909546,-0.2858764827251434,1.2363548278808594,-0.1954711079597473,#
-0.7322037816047668,-10.652846336364746,1.7371891736984253,-0.152711808681488,1.2705622911453247,-0.2394521236419677,#
-0.7704889178276062,-9.346364974975586,1.0791629552841189,0.0048867780715227,1.2864443063735962,-0.261442631483078,#
-0.7704889178276062,-9.346364974975586,1.0791629552841189,0.3555130958557129,1.450151443481445,-0.3286358118057251,#
-0.8087739944458008,-9.506684303283691,0.9092726111412048,0.605960488319397,1.5796509981155396,-0.3249707520008087,#
-0.6245267391204834,-10.198209762573242,2.5746772289276123,0.7256865501403809,1.7848955392837524,-0.128277912735939,#
-0.4905286431312561,-10.990234375,2.84506630897522,0.2846547961235046,1.9840317964553835,-0.0427593067288398,#
-0.3924228847026825,-10.54516887664795,2.885744333267212,0.3249707520008087,2.0438947677612305,-0.130721315741539,#
-0.1316052377223968,-9.454042434692385,2.502892255783081,0.4776825606822967,2.1575124263763428,-0.2626643180847168,#
-0.1316052377223968,-9.454042434692385,2.502892255783081,0.6084038615226746,2.18438982963562,-0.2761029601097107,#
0.2727817595005035,-9.14297580718994,0.064606212079525,0.6279509663581848,2.20760178565979,-0.2699944972991943,#
0.6915256977081299,-11.298907279968262,1.5314064025878906,0.7525637745857239,2.4055163860321045,-0.1026223376393318,#
0.5264209508895874,-12.179466247558594,3.565305471420288,0.5851916074752808,2.98582124710083,0.0293206684291362,#
0.6747759580612183,-10.695917129516602,3.7639100551605225,0.6022953391075134,3.1519718170166016,-0.0733016654849052,#
0.6747759580612183,-10.695917129516602,3.7639100551605225,1.0188932418823242,3.075005054473877,-0.3347443044185638,#
0.8877372145652771,-8.535198211669922,3.1441688537597656,1.119072198867798,3.049349546432495,-0.3384093642234802,#
1.0193424224853516,-9.24825954437256,1.6031911373138428,0.6755970120429993,3.0566794872283936,-0.199136197566986,#
0.5694918036460876,-11.877972602844238,3.13220477104187,0.3225273489952087,3.214278221130371,0.0232121963053941,#
0.8853443264961243,-11.90668487548828,2.895315170288086,0.3555130958557129,3.3828721046447754,0.0513111688196659,#
0.8853443264961243,-11.90668487548828,2.895315170288086,0.96147358417511,3.4793858528137207,0.0109952501952648,#
0.5240281224250793,-10.231709480285645,2.225324869155884,1.5466653108596802,3.5013763904571533,-0.1014006435871124,#
0.1459621787071228,-9.93978500366211,2.1272192001342773,1.6602827310562134,3.5074849128723145,-0.2015795856714248,#
0.4666004180908203,-10.24367332458496,2.057827472686768,1.610193371772766,3.4378480911254883,-0.3567348122596741,#
1.038485050201416,-9.81057357788086,-0.6436693072319031,1.4965757131576538,3.3767635822296143,-0.4202629029750824,#
0.8733802437782288,-10.961520195007324,-1.1198409795761108,1.1984822750091553,3.315678834915161,-0.5436540246009827,#
0.8733802437782288,-10.961520195007324,-1.1198409795761108,1.1569446325302124,3.6467580795288086,-0.4679089784622192,#
-0.430708110332489,-12.473784446716309,-0.2799602448940277,1.2864443063735962,3.941186428070069,-0.4349232316017151,#
-0.9092726111412048,-10.681561470031738,1.043270707130432,1.962041258811951,4.070686340332031,-0.5070031881332397,#
-0.6508477926254272,-9.688538551330566,0.9116654396057128,1.9156169891357424,3.7921395301818848,-0.3518480062484741,#
-1.1006983518600464,-10.846665382385254,-2.67278265953064,1.718924045562744,3.6846303939819336,-0.3029802441596985,#
-1.1006983518600464,-10.846665382385254,-2.67278265953064,1.035996913909912,3.47327733039856,-0.4581354260444641,#
-2.943171739578247,-10.274779319763184,-1.093519926071167,0.5632011890411377,3.3205654621124268,-0.5021164417266846,#
-1.8592231273651123,-10.336994171142578,0.969093143939972,0.5021164417266846,2.928401470184326,-0.5607577562332153,#
-1.4452648162841797,-10.363314628601074,0.057427741587162,0.7000309228897095,2.71094012260437,-0.4825693070888519,#
-2.3856441974639893,-9.174081802368164,-1.6151552200317385,0.8466342687606812,2.6681809425354004,-0.4618005454540252,#
-3.156132936477661,-9.33440113067627,-2.581855773925781,1.0152281522750854,2.2980072498321533,-0.3445178270339966,#
-3.156132936477661,-9.33440113067627,-2.581855773925781,0.7989881634712219,1.8239898681640625,-0.3469612300395965,#
-3.129812002182007,-10.978270530700684,-0.4235295951366424,0.7036960124969482,1.6773865222930908,-0.4214845895767212,#
-2.6249265670776367,-10.059426307678224,-0.6293123364448547,1.192373752593994,1.557660460472107,-0.5338804721832275,#
-2.957528829574585,-8.925228118896484,-1.765903115272522,1.4904673099517822,1.485580563545227,-0.5021164417266846,#
-2.914458036422729,-10.17188835144043,-0.9978070855140686,1.4342693090438845,1.3145432472229004,-0.4214845895767212,#
-2.914458036422729,-10.17188835144043,-0.9978070855140686,0.5949652194976807,1.202147364616394,-0.4654656052589416,#
-3.3308091163635254,-10.717452049255373,-2.7948169708251958,0.2162399291992187,1.1117420196533203,-0.4190412163734436,#
-3.2853453159332275,-12.110074996948242,-2.9838497638702397,-0.1795890927314758,0.8222004175186157,-0.2919849753379822,#
-2.9623143672943115,-11.43529987335205,-3.25663161277771,0.3286358118057251,0.574196457862854,-0.261442631483078,#
-2.957528829574585,-10.681561470031738,-3.87876558303833,0.5534276366233826,0.4385882914066314,-0.175924003124237,#
-2.957528829574585,-10.681561470031738,-3.87876558303833,0.4789042472839355,0.0122169442474842,-0.0207688063383102,#
-2.8283162117004395,-11.60519027709961,-4.701896190643311,-0.0488677769899368,-0.5522059202194214,0.1673721522092819,#
-2.230110645294189,-11.578868865966797,-7.618747234344482,-0.3775035738945007,-0.8808417320251465,0.261442631483078,#
-0.763310432434082,-12.708280563354492,-8.365307807922363,-1.077534556388855,-1.5503302812576294,0.4361449182033539,left
0.117248311638832,-13.526626586914062,-5.570490837097168,-1.453816533088684,-1.894848108291626,0.4789042472839355,left
1.0001999139785769,-12.42832088470459,-4.587040901184082,-1.718924045562744,-2.4262852668762207,0.4581354260444641,left
1.0001999139785769,-12.42832088470459,-4.587040901184082,-1.6676130294799805,-3.210613250732422,0.6389462351799011,left
1.4787644147872925,-11.796616554260254,-6.336194515228272,-2.032899618148804,-3.645536422729492,0.7403469085693359,left
3.4815566539764404,-12.904492378234863,-6.975078105926514,-3.111655712127685,-4.608231544494629,0.8270871639251709,left
4.883750915527344,-13.42852020263672,-7.348358631134033,-3.10676908493042,-5.435318470001221,0.6731536388397217,left
5.893522262573242,-12.095718383789062,-4.919642925262451,-2.725600242614746,-5.743185997009277,0.5570926666259766,left
5.893522262573242,-12.095718383789062,-4.919642925262451,-1.878966212272644,-6.30150032043457,0.4129327237606048,left
7.355536937713623,-12.31107234954834,-4.409972190856934,-1.7458014488220217,-6.619141101837158,0.4898994863033294,left
7.726424217224121,-11.667403221130373,-2.7182462215423584,-1.9486026763916016,-7.106596946716309,0.6511631608009338,left
7.913064479827881,-13.97408390045166,5.32403039932251,-2.736595630645752,-7.729661464691162,0.5351021885871887,left
6.7070817947387695,-13.404592514038086,9.044869422912598,-2.852656602859497,-7.94345760345459,0.3811686933040619,left
6.7070817947387695,-13.404592514038086,9.044869422912598,-2.6938364505767822,-8.193904876708984,0.1148392781615257,left
6.446264266967773,-12.703495025634766,-7.29093074798584,-1.2534584999084473,-8.33684253692627,0.0366508327424526,left
11.408977508544922,-14.376078605651855,3.641876220703125,-0.4776825606822967,-8.423583030700684,0.4349232316017151,left
9.078369140625,-13.189238548278809,15.127424240112305,-1.3939534425735474,-3.772592544555664,1.7213674783706665,left
3.486342430114746,-11.990432739257812,10.73420238494873,-1.4904673099517822,-2.319998025894165,1.0298885107040403,left
2.5842485427856445,-7.764709949493408,4.883750915527344,-0.0024433890357613,-3.362103223800659,0.0305423624813556,left
2.5842485427856445,-7.764709949493408,4.883750915527344,-0.5375455617904663,-3.481829166412353,0.9040539264678956,left
4.687539577484131,-6.52044153213501,6.774080753326416,-1.2510151863098145,-3.1788489818573,1.1569446325302124,left
4.244867324829102,-11.708081245422363,7.109076023101807,-1.605306625366211,-2.9235148429870605,0.3066453039646148,left
2.940778970718384,-10.71266746520996,6.482156753540039,-0.069636583328247,-2.6107609272003174,-0.2406738102436065,left
1.6582260131835938,-6.537191867828369,6.238089084625244,0.84541255235672,-2.2112669944763184,-0.1832541674375534,left
1.6582260131835938,-6.537191867828369,6.238089084625244,2.0561118125915527,-1.3389772176742554,0.0171037223190069,left
0.818345308303833,-5.965306758880615,6.374479293823242,1.9021782875061035,-0.9407047629356384,0.1600419729948043,left
0.2943171858787536,-8.614161491394043,7.034898281097412,0.3799469769001007,-0.3445178270339966,0.2626643180847168,left
-0.2488535493612289,-10.176674842834473,5.290531158447266,-0.7354600429534912,-0.1514901220798492,-0.0720799788832664,left
-0.8638089299201965,-9.4660062789917,1.9669002294540403,-0.5961868762969971,-0.0965138673782348,-0.2028012871742248,left
-1.3902300596237185,-7.726424217224121,1.2729815244674685,0.3054236173629761,0.2907632887363434,-0.1844758540391922,#
-1.3902300596237185,-7.726424217224121,1.2729815244674685,0.4300364553928375,0.4361449182033539,-0.100178949534893,#
-1.0193424224853516,-9.29611587524414,3.38105845451355,0.0977355539798736,0.6047387719154358,-0.0757450610399246,#
-0.5383850932121277,-11.665009498596191,3.4815566539764404,-0.3408527672290802,0.9602518677711488,-0.1612636744976043,#
-0.246460735797882,-11.810973167419434,3.079562902450561,-0.3457395434379577,1.016449809074402,-0.2736595571041107,#
-0.6699903011322021,-11.430513381958008,3.242274522781372,-0.1014006435871124,1.0726476907730105,-0.3151971697807312,#
-0.6699903011322021,-11.430513381958008,3.242274522781372,0.4691306948661804,1.109298586845398,-0.3616215586662292,#
-1.026520848274231,-10.449455261230469,2.014756679534912,0.707361102104187,1.1166287660598757,-0.3738385140895843,#
-0.6125625967979431,-8.956335067749023,1.4548362493515017,0.6707102656364441,1.021336555480957,-0.2125748395919799,#
-0.4953142702579498,-10.10488986968994,2.187039852142334,0.5412106513977051,1.1654964685440063,-0.0928487852215766,#
-0.7513462901115417,-10.296316146850586,3.3427734375,0.6352811455726624,1.2070342302322388,-0.1038440242409706,#
-0.7513462901115417,-10.296316146850586,3.3427734375,0.6646018028259277,1.1838220357894895,-0.1209477484226226,#
-1.5457634925842283,-10.07139015197754,3.785445213317871,0.8674030900001526,1.1850436925888062,-0.1356080919504165,#
-1.5361920595169067,-9.190832138061523,3.259024381637573,1.51734459400177,1.1777135133743286,-0.200357899069786,#
-0.7130610942840576,-8.654839515686035,1.093519926071167,1.3866231441497805,1.1984822750091553,-0.0794101431965828,#
-0.3038884699344635,-9.633503913879396,2.368894338607788,1.0298885107040403,1.2473500967025757,-0.0464243926107883,#
-0.818345308303833,-10.442277908325195,3.390629768371582,0.0952921733260154,1.6040849685668943,-0.1197260618209838,#
-0.818345308303833,-10.442277908325195,3.390629768371582,-0.2223483920097351,1.935163974761963,-0.1710372269153595,#
-0.8087739944458008,-10.08574676513672,3.854837417602539,-0.0378725305199623,1.9205037355422971,-0.1881409436464309,#
-0.9595218896865844,-9.037691116333008,4.170689582824707,0.6988092660903931,1.8239898681640625,-0.1856975704431533,#
-0.7202396392822266,-8.499305725097656,4.0797624588012695,0.8148701786994934,1.7274760007858276,-0.2211267054080963,#
-0.2679961323738098,-8.894121170043945,2.581855773925781,0.7061393857002258,1.706707239151001,-0.2797680497169494,#
-0.2679961323738098,-8.894121170043945,2.581855773925781,0.5766398310661316,1.7983342409133911,-0.3017585575580597,#
0.1244267746806144,-9.834501266479492,3.2829525470733643,0.5424323678016663,1.9498244524002075,-0.2736595571041107,#
0.2751745879650116,-9.81535816192627,3.840480089187622,0.577861487865448,2.256469488143921,-0.282211422920227,#
-0.3302095234394073,-9.06879711151123,4.316651821136475,0.7806627750396729,2.3713088035583496,-0.3982723951339721,#
-0.4809573292732239,-9.119047164916992,3.739981651306152,0.8759549260139465,2.467822790145874,-0.5021164417266846,#
-0.4809573292732239,-9.119047164916992,3.739981651306152,0.9688037633895874,2.6767325401306152,-0.634059488773346,#
0.0550349205732345,-9.322437286376951,3.720839262008667,0.7330166697502136,2.611982822418213,-0.7293516397476196,#
0.6173481941223145,-9.523433685302734,3.079562902450561,0.6584933400154114,2.53135085105896,-0.8319739699363708,#
1.2873386144638062,-10.092925071716309,-0.3445664942264557,1.0372185707092283,2.458049297332764,-1.0787562131881714,#
0.2273181527853012,-8.664410591125488,1.031306505203247,1.237576603889465,2.7097182273864746,-1.0824213027954102,#
-0.760917603969574,-8.140382766723633,3.3164520263671875,0.8050966858863831,3.1031041145324707,-1.0421053171157837,#
-0.760917603969574,-8.140382766723633,3.3164520263671875,-0.0965138673782348,3.4231879711151123,-1.115407109260559,#
0.2344966232776641,-9.997212409973145,2.5004994869232178,-0.3958290219306946,3.51237154006958,-1.155722975730896,#
0.5120640397071838,-9.999605178833008,-1.4572290182113647,-0.0867403075098991,3.798248291015625,-1.0750911235809326,#
-1.124626636505127,-9.702895164489746,-0.0813559740781784,-0.1661504507064819,3.709064483642578,-1.188708782196045,#
-1.2921242713928225,-10.861021995544434,1.7898313999176023,-0.3616215586662292,3.6895172595977774,-1.1508362293243408,#
-1.2921242713928225,-10.861021995544434,1.7898313999176023,-1.142284274101257,3.4903812408447266,-0.9541434049606324,#
0.380458801984787,-12.258429527282717,0.672383189201355,-1.3194299936294556,3.3633251190185547,-0.8857284784317017,#
-0.3110669553279876,-11.30130100250244,-5.347958564758301,-1.09219491481781,3.4207446575164795,-0.7183563709259033,#
-2.1128623485565186,-11.24866008758545,-3.716053485870361,-0.7660024166107178,3.257037401199341,-0.4984513521194458,#
-0.9786643981933594,-13.052846908569336,-1.2011969089508057,-0.712247908115387,3.211834669113159,-0.4703523814678192,#
-0.8542376756668091,-11.042876243591309,-2.170289993286133,0.0867403075098991,3.330339193344116,-0.5143333673477173,#
-0.8542376756668091,-11.042876243591309,-2.170289993286133,1.2229161262512207,3.2729194164276123,-0.4263713657855987,#
-1.6965112686157229,-10.042675971984863,-3.192025184631348,1.3487507104873655,3.0542361736297607,-0.3090887069702148,#
-2.053041696548462,-9.140583038330078,-4.929214477539063,0.9602518677711488,2.4372804164886475,-0.3616215586662292,#
-1.435693621635437,-10.695917129516602,-5.247459888458252,-0.0610847249627113,1.9388291835784912,-0.1380514800548553,#
-1.3280165195465088,-11.84447193145752,-3.713660717010498,-0.3494046330451965,1.810551166534424,-0.0452026948332786,#
-1.3280165195465088,-11.84447193145752,-3.713660717010498,-0.5754181146621704,1.7250326871871948,-0.1172826737165451,#
-2.179861307144165,-11.318050384521484,-2.699103832244873,-0.439810037612915,1.627297043800354,-0.0818535313010215,#
-2.3736801147460938,-10.083355903625488,-2.486142873764038,0.0134386392310261,1.1777135133743286,-0.0109952501952648,#
-2.2133607864379883,-9.595218658447266,-2.974278450012207,0.2296785563230514,0.7440119385719299,0.1331647038459777,left
-2.3330020904541016,-10.25802993774414,-4.23529577255249,0.2309002727270126,0.5424323678016663,0.1685938388109207,left
-2.3330020904541016,-10.25802993774414,-4.23529577255249,0.1075091138482093,0.2394521236419677,0.2235700935125351,left
-2.4646072387695312,-11.045268058776855,-2.8666017055511475,0.0244338884949684,0.1172826737165451,0.1844758540391922,left
-2.026720762252808,-10.078569412231444,-0.794417142868042,0.1197260618209838,0.0232121963053941,0.1502684205770492,left
-2.541177749633789,-9.480363845825195,-0.2679961323738098,0.21135313808918,-0.007330167107284,0.0916270837187767,left
-2.557927370071411,-9.564111709594728,-1.5337992906570437,0.0891837030649185,-0.0781884491443634,0.0965138673782348,left
-2.567498683929444,-9.973284721374512,-3.3619158267974854,-0.31641885638237,-0.2944283783435821,0.199136197566986,left
-2.567498683929444,-9.973284721374512,-3.3619158267974854,-0.5241069197654724,-0.4068242609500885,0.2272351831197738,left
-2.258824586868286,-11.011770248413086,-3.081955671310425,-0.6096255779266357,-0.42270627617836,0.2174616158008575,left
-2.1655044555664062,-11.06919765472412,-2.5459630489349365,-0.4190412163734436,-0.4263713657855987,0.0855186134576797,left
-2.644068956375122,-9.315258979797363,-3.187239646911621,0.2675510942935943,-0.5937435030937195,0.0427593067288398,left
-2.514856576919556,-10.681561470031738,-4.185047149658203,0.3445178270339966,-0.7110261917114258,0.1099525094032287,left
-2.514856576919556,-10.681561470031738,-4.185047149658203,-0.0390942245721817,-0.9626952409744264,0.2455605864524841,left
-2.227717876434326,-10.961520195007324,-6.003591537475586,-0.2284568697214126,-1.0714260339736938,0.2968717515468597,left
-1.227518081665039,-10.470992088317873,-8.62612533569336,-0.4825693070888519,-1.3389772176742554,0.3823903799057007,left
-0.1698903888463974,-11.172088623046877,-8.087740898132324,-0.5705313086509705,-1.7238109111785889,0.2944283783435821,left
0.8207381367683411,-10.71266746520996,-5.630311965942383,-0.4178195297718048,-1.955932855606079,0.1954711079597473,left
1.4620146751403809,-10.875378608703612,-6.348158359527588,-0.2406738102436065,-2.7036099433898926,0.178367406129837,left
1.4620146751403809,-10.875378608703612,-6.348158359527588,-0.3274141252040863,-3.5942251682281494,0.2638860046863556,left
2.737389087677002,-10.482955932617188,-7.36032247543335,-0.6181774139404297,-4.073129653930664,0.3249707520008087,left
3.4408791065216064,-10.870593070983888,-7.747959613800049,-1.3707412481307983,-4.925871849060059,0.3408527672290802,left
5.508277893066406,-10.705488204956056,-5.359922409057617,-1.562547206878662,-5.340026378631592,0.2748812437057495,left
6.860222339630127,-12.098111152648926,-4.8502516746521,-1.8264333009719849,-6.117023944854736,0.200357899069786,left
6.860222339630127,-12.098111152648926,-4.8502516746521,-1.8129945993423464,-6.630136013031006,-0.0635281130671501,left
7.34357213973999,-11.619546890258787,-4.8502516746521,-1.7604618072509766,-6.999087810516357,-0.2480039745569229,left
7.537391662597656,-11.509476661682127,-3.541377305984497,-1.7128156423568726,-7.34849214553833,-0.3298574984073639,left
7.068397998809815,-12.531211853027344,4.295116424560547,-1.4440428018569946,-7.669797897338867,-0.5008947253227234,left
6.977471351623535,-12.287144660949709,9.671788215637209,-1.2314679622650146,-7.89825439453125,-0.6218425035476685,left
6.977471351623535,-12.287144660949709,9.671788215637209,-1.5430002212524414,-8.256211280822754,-0.3897205293178558,left
6.230910301208496,-12.5264253616333,1.411765456199646,-1.6700563430786133,-8.5029935836792,-0.0635281130671501,left
8.255237579345703,-14.94556999206543,0.7824530005455017,0.2150182276964187,-8.402814865112305,0.5925218462944031,left
8.228917121887207,-11.327622413635254,5.663811206817627,0.8441908955574036,-4.95763635635376,1.2620103359222412,left
5.907878875732422,-8.664410591125488,10.74855899810791,0.6633800864219666,-3.7591538429260254,0.8686248064041138,left
3.486342430114746,-7.606783390045166,7.202396392822266,0.5363238453865051,-2.3273282051086426,-0.3994940817356109,left
3.486342430114746,-7.606783390045166,7.202396392822266,0.5008947253227234,-2.0524466037750244,-0.5045598149299622,left
3.086741209030152,-5.685347080230713,4.5391845703125,0.1490467190742492,-1.9522677659988403,-0.1685938388109207,left
3.3164520263671875,-7.939385414123535,6.065804958343506,-1.0237799882888794,-1.3389772176742554,0.4373666048049927,left
2.390429735183716,-10.612168312072754,7.36032247543335,-1.747023105621338,-0.6084038615226746,0.4837909936904907,left
0.8925228118896484,-10.794021606445312,5.807380676269531,-1.92294716835022,-0.4776825606822967,0.3848337531089782,left
0.8925228118896484,-10.794021606445312,5.807380676269531,-1.0763128995895386,-0.8429691791534424,0.0158820282667875,left
0.2656033039093017,-9.81057357788086,0.5575276613235474,-0.1734806150197982,-0.8466342687606812,-0.155155211687088,#
-0.7657032012939453,-8.219346046447754,1.7012970447540283,0.9956809878349304,-0.4300364553928375,-0.3139754831790924,#
-0.638883650302887,-8.791230201721191,5.513063907623291,0.235787034034729,0.0500894747674465,-0.2699944972991943,#
-0.3158525824546814,-9.607183456420898,5.333601474761963,-0.1148392781615257,0.2907632887363434,-0.2418954968452453,#
-0.3158525824546814,-9.607183456420898,5.333601474761963,-0.5680879354476929,0.2883199155330658,-0.3384093642234802,#
-0.6340980529785156,-10.116853713989258,3.1728827953338623,-0.2064663618803024,0.2455605864524841,-0.310310423374176,#
-0.9475577473640442,-9.449256896972656,1.2705888748168943,-0.0671931952238082,0.2773246467113495,-0.1942494213581085,#
-0.861416220664978,-10.963912963867188,-0.4809573292732239,0.3127537965774536,0.2748812437057495,-0.235787034034729,#
-0.1268195956945419,-11.717653274536133,1.6701902151107788,0.6927007436752319,0.2089097648859024,-0.3371876776218414,#
0.0813559740781784,-10.547561645507812,2.423929214477539,0.8405258059501648,0.2553341388702392,-0.3078669905662536,#
0.0813559740781784,-10.547561645507812,2.423929214477539,1.3292036056518557,0.6108472347259521,-0.4104893505573272,#
-0.607776939868927,-8.951549530029297,2.1918253898620605,1.3670761585235596,0.8050966858863831,-0.4923428893089294,#
-0.906879723072052,-9.633503913879396,2.407179594039917,0.4691306948661804,1.0836429595947266,-0.4618005454540252,#
-0.2560320198535919,-11.057233810424805,3.002992391586304,-0.7134696245193481,1.021336555480957,-0.3616215586662292,#
0.5647061467170715,-11.641082763671877,1.852044701576233,-0.998124361038208,0.9956809878349304,-0.282211422920227,#
0.5647061467170715,-11.641082763671877,1.852044701576233,-0.5106682777404785,1.2778924703598022,-0.0818535313010215,#
1.4165509939193726,-11.13619613647461,1.969292998313904,0.1343863904476165,1.5039058923721311,0.0207688063383102,#
1.7874385118484497,-11.018948554992676,4.041477203369141,1.5649906396865845,2.0035789012908936,0.2064663618803024,#
1.191625714302063,-11.145767211914062,5.015356063842773,2.114753007888794,2.028012752532959,0.2687727808952331,#
1.00259268283844,-9.408578872680664,4.843072891235352,2.1819465160369877,1.8288766145706177,0.2211267054080963,#
1.411765456199646,-8.379664421081543,2.75174617767334,2.082988977432251,1.7030421495437622,0.0940704718232154,#
1.411765456199646,-8.379664421081543,2.75174617767334,1.612636685371399,1.907065153121948,-0.0916270837187767,#
1.5864413976669312,-8.492127418518066,2.557927370071411,1.220472812652588,2.0561118125915527,-0.1979145109653473,#
1.277767300605774,-8.786444664001465,5.101497650146484,0.2272351831197738,2.427506923675537,-0.4495835602283478,#
0.760917603969574,-8.817551612854004,6.027520179748535,-0.1148392781615257,2.7231569290161133,-0.5851916074752808,#
0.9810572862625122,-9.31047248840332,3.7878382205963135,0.1111741960048675,2.713383436203003,-0.6035171151161194,#
0.9810572862625122,-9.31047248840332,3.7878382205963135,0.9700254201889038,2.7317090034484863,-0.5534276366233826,#
1.8783657550811768,-9.96371364593506,4.048655986785889,1.3108781576156616,2.8624300956726074,-0.4837909936904907,#
2.00518536567688,-10.315458297729492,4.711467742919922,1.4196090698242188,3.397532224655152,-0.5094466209411621,#
1.7730815410614014,-9.76989459991455,3.69930362701416,1.7238109111785889,3.608885526657105,-0.7928797006607056,#
1.289731502532959,-8.671588897705078,2.65842604637146,1.830098390579224,3.650423288345337,-0.926044464111328,#
1.289731502532959,-8.671588897705078,2.65842604637146,1.6004197597503662,3.80313491821289,-1.1984822750091553,#
1.4021940231323242,-8.769694328308105,1.2562319040298462,0.7403469085693359,3.911865711212158,-1.353637456893921,#
1.7012970447540283,-9.707681655883787,0.4833501875400543,0.2968717515468597,4.035256862640381,-1.3157649040222168,#
0.8542376756668091,-12.256037712097168,1.6223337650299072,0.0916270837187767,4.648547649383545,-1.1019684076309204,#
0.6891329884529114,-12.150753021240234,1.576870083808899,0.2296785563230514,5.074918746948242,-0.9724688529968262,#
0.3014956414699554,-10.380064964294434,1.442872166633606,0.5277720093727112,5.065145492553711,-1.1166287660598757,#
0.3014956414699554,-10.380064964294434,1.442872166633606,0.3249707520008087,4.804924488067627,-1.2620103359222412,#
0.1244267746806144,-9.820144653320312,0.1507478207349777,-0.0415376126766204,4.643661022186279,-1.2168077230453491,#
0.9475577473640442,-12.239288330078123,-1.1413763761520386,-0.2907632887363434,4.176973342895508,-0.9810206294059752,#
0.4402793645858764,-13.643874168395996,-4.357330322265625,0.2736595571041107,3.900870323181152,-0.7623373866081238,#
-0.0717846825718879,-11.810973167419434,-3.13938307762146,0.8869501948356628,3.8801016807556152,-0.7464553117752075,#
-0.0717846825718879,-11.810973167419434,-3.13938307762146,1.7885607481002808,3.706621170043945,-0.7501204013824463,#
-0.277567446231842,-9.530611991882324,-4.412364959716797,1.931498885154724,3.6149940490722656,-0.7379034161567688,#
-2.888136863708496,-8.84626579284668,-2.108076810836792,1.4049487113952637,3.312013864517212,-0.6719319820404053,#
-2.4095723628997803,-10.667202949523926,0.6867401003837585,0.448361873626709,2.4959216117858887,-0.5033381581306458,#
-0.397208571434021,-12.411571502685549,0.6197410225868225,0.0867403075098991,2.0243477821350098,-0.5522059202194214,#
-1.65583336353302,-8.776873588562012,-1.306481122970581,0.439810037612915,1.9119518995285036,-0.6279509663581848,#
-1.65583336353302,-8.776873588562012,-1.306481122970581,0.7293516397476196,1.854532241821289,-0.416597843170166,#
-2.8283162117004395,-10.198209762573242,-4.441079139709473,0.3994940817356109,1.6199668645858765,-0.3188622593879699,#
-2.337787628173828,-10.262815475463867,-2.4095723628997803,-0.6829272508621216,1.1984822750091553,-0.3921639025211334,#
-2.366501569747925,-10.413564682006836,0.1363908797502517,-0.9370396137237548,1.1251806020736694,-0.3811686933040619,#
-2.8594231605529785,-10.40638542175293,0.0239282250404357,-0.7476770281791687,0.873511552810669,-0.3298574984073639,#
-2.8594231605529785,-10.40638542175293,0.0239282250404357,-0.4666872918605804,0.3713951408863067,-0.155155211687088,#
-3.041277408599853,-10.279565811157228,-1.931007981300354,-0.3579564988613128,0.1087308079004287,-0.0610847249627113,#
-2.9934213161468506,-10.995020866394045,-2.7086753845214844,-0.1966928243637085,-0.3274141252040863,0.0940704718232154,#
-2.4047868251800537,-10.750951766967772,-1.3543376922607422,0.1172826737165451,-0.3860554695129394,0.0464243926107883,#
-2.6009981632232666,-10.451848983764648,-0.2799602448940277,0.235787034034729,-0.3200839459896087,0.0623064190149307,#
-2.6009981632232666,-10.451848983764648,-0.2799602448940277,0.3457395434379577,-0.2773246467113495,0.0476460866630077,left
-2.785245418548584,-9.958927154541016,-0.0311066936701536,0.2712161839008331,-0.3261924386024475,0.0366508327424526,left
-2.9551358222961426,-10.061819076538086,0.2273181527853012,-0.1221694499254226,-0.445918470621109,0.1417165547609329,left
-2.5076780319213867,-10.961520195007324,-0.3565305471420288,-0.4275930821895599,-0.4886777997016907,0.1356080919504165,left
-2.3880369663238525,-10.569098472595217,0.4761717021465301,-0.3542913794517517,-0.4434750974178314,0.1209477484226226,left
-2.567498683929444,-9.918249130249023,0.9667003750801086,0.040315918624401,-0.3909422159194946,0.0842969194054603,left
-2.567498683929444,-9.918249130249023,0.9667003750801086,0.4385882914066314,-0.3848337531089782,0.0378725305199623,left
-2.3569302558898926,-9.602396965026855,1.1389836072921753,0.3958290219306946,-0.4532486498355865,0.0830752253532409,left
-2.7876384258270264,-9.221939086914062,-1.380658507347107,0.1014006435871124,-0.6817055344581604,0.1429382413625717,left
-2.57228422164917,-10.08574676513672,-5.230710506439209,-0.411711037158966,-0.9309312105178832,0.1881409436464309,left
-1.1437692642211914,-12.358928680419922,-5.125426292419434,-0.7464553117752075,-1.0494356155395508,0.2211267054080963,left
-1.1437692642211914,-12.358928680419922,-5.125426292419434,-1.067760944366455,-1.1813786029815674,0.0574196390807628,left
-0.973878800868988,-11.767902374267578,-3.3236305713653564,-0.9309312105178832,-1.2876659631729126,-0.0745233595371246,left
-0.1674975752830505,-11.36351490020752,-5.278566360473633,-0.6389462351799011,-1.9119518995285036,0.0048867780715227,left
0.94037926197052,-13.35434341430664,-6.451050281524658,-1.1838220357894895,-2.7952370643615723,0.3860554695129394,left
1.8664016723632808,-13.897513389587402,-7.247859954833984,-1.593089580535889,-3.277806282043457,0.4972296357154846,left
1.8664016723632808,-13.897513389587402,-7.247859954833984,-1.8838529586791992,-4.311359882354736,0.6975875496864319,left
4.141976356506348,-14.256437301635742,-9.166903495788574,-1.4892456531524658,-5.221521854400635,0.8502993583679199,left
5.340780735015869,-13.349557876586914,-10.478169441223145,-1.2363548278808594,-5.645450115203857,0.8808417320251465,left
8.09252643585205,-12.52881908416748,-8.161917686462402,-1.6798299551010132,-6.330820560455322,1.2094775438308716,left
7.738388061523437,-12.861420631408691,-1.2179466485977173,-2.3908562660217285,-6.6032586097717285,1.280335783958435,left
7.310072898864746,-13.14138126373291,7.223931312561035,-3.335226058959961,-7.266639232635498,0.8710681796073914,left
7.310072898864746,-13.14138126373291,7.223931312561035,-3.078670024871826,-8.31973934173584,0.4691306948661804,left
6.08494758605957,-11.545370101928713,-9.3128662109375,-2.58021879196167,-8.777874946594238,0.3090887069702148,left
12.937992095947266,-16.37647819519043,3.775874137878418,-0.129499614238739,-10.28788948059082,0.1942494213581085,left
13.7228364944458,-11.720046043395996,16.36212158203125,0.2455605864524841,-6.062047958374023,2.0243477821350098,left
4.780859470367432,-10.363314628601074,13.07199001312256,-0.5204418301582336,-3.862997770309448,1.9754799604415891,left
4.780859470367432,-10.363314628601074,13.07199001312256,0.966360330581665,-4.129327297210693,0.4911211729049682,left
2.935993194580078,-7.448856830596924,8.999405860900879,0.9700254201889038,-4.062134265899658,0.5448757410049438,left
3.651447057723999,-5.651846885681152,6.592226982116699,-0.5570926666259766,-2.8367743492126465,1.3890666961669922,left
3.476771354675293,-8.228917121887207,8.489734649658203,-1.2314679622650146,-2.065885305404663,1.0824213027954102,left
1.7012970447540283,-10.344171524047852,8.48734188079834,-1.3011046648025513,-1.4953540563583374,0.8502993583679199,left
0.552742063999176,-8.980262756347656,5.570490837097168,-0.9150491952896118,-1.469698429107666,0.546097457408905,left
0.552742063999176,-8.980262756347656,5.570490837097168,0.1417165547609329,-1.3316470384597778,0.5118899941444397,#
0.0311066936701536,-7.5326056480407715,4.543970108032227,0.6218425035476685,-1.0763128995895386,0.5375455617904663,#
-1.117448091506958,-7.36032247543335,5.125426292419434,0.7708892226219177,-0.7366817593574524,0.3738385140895843,#
-2.057827472686768,-8.173882484436035,5.649453639984131,0.1673721522092819,-0.5754181146621704,-0.0305423624813556,#
-1.947757601737976,-9.28175926208496,4.407578945159912,-0.0329857505857944,-0.5925218462944031,-0.2015795856714248,#
-1.947757601737976,-9.28175926208496,4.407578945159912,0.2467822879552841,-0.7806627750396729,-0.3213056325912475,#
-1.65583336353302,-7.781459331512451,1.8424735069274905,0.4935645759105682,-0.7611156702041626,-0.3115321099758148,#
-1.5792629718780518,-7.661818027496338,2.7182462215423584,0.9602518677711488,-0.2528907656669616,-0.2418954968452453,#
-2.09850549697876,-9.013763427734377,2.785245418548584,0.9455915093421936,0.4092676639556885,-0.1331647038459777,#
-2.4502503871917725,-9.611968994140623,3.1178479194641118,0.5424323678016663,0.4654656052589416,-0.1368297785520553,#
-2.4502503871917725,-9.611968994140623,3.1178479194641118,-0.1258345395326614,0.2956500649452209,-0.3481829464435577,#
-2.6943180561065674,-10.009177207946776,2.974278450012207,-0.4275930821895599,0.1942494213581085,-0.4837909936904907,#
-2.2923240661621094,-10.432705879211426,2.96949315071106,-0.6694886088371277,0.0977355539798736,-0.4544703662395477,#
-2.060220241546631,-10.310672760009766,2.6560330390930176,-0.8124268054962158,-0.2174616158008575,-0.4837909936904907,#
-2.366501569747925,-10.174281120300291,1.739582061767578,-0.8038749694824219,-0.3494046330451965,-0.5619794726371765,#
-2.287538528442383,-10.437491416931152,0.4354937374591827,-0.4043808877468109,-0.4080459475517273,-0.6218425035476685,#
-2.287538528442383,-10.437491416931152,0.4354937374591827,0.258999228477478,-0.3261924386024475,-0.3310791850090027,#
-1.7084753513336182,-10.463812828063965,0.8733802437782288,0.393385648727417,-0.2516690790653229,-0.129499614238739,#
-1.4668002128601074,-9.360722541809082,2.170289993286133,0.2089097648859024,-0.128277912735939,-0.0024433890357613,#
-1.9573287963867188,-8.49691390991211,2.7278177738189697,-0.0109952501952648,-0.0549762547016143,-0.1417165547609329,#
-2.7421746253967285,-9.643074989318848,1.8999011516571045,-0.0586413368582725,-0.0708582773804664,-0.1881409436464309,#
-2.7421746253967285,-9.643074989318848,1.8999011516571045,-0.1771456897258758,-0.2015795856714248,-0.1600419729948043,#
-2.75174617767334,-10.222138404846191,0.9499505758285522,-0.3591781854629516,-0.3225273489952087,-0.1319430023431778,#
-1.978864312171936,-10.186245918273926,-0.0406779870390892,-0.730573296546936,-0.5986303091049194,-0.1771456897258758,#
-1.2658032178878784,-9.736394882202148,1.2059825658798218,-0.4471401870250702,-0.5986303091049194,-0.2052446752786636,#
-1.4715858697891235,-9.875179290771484,1.5960125923156738,-0.2932066619396209,-0.5485408306121826,-0.1869192570447921,#
-2.060220241546631,-9.547362327575684,1.2083754539489746,0.0146603342145681,-0.4813476204872131,-0.0855186134576797,#
-2.060220241546631,-9.547362327575684,1.2083754539489746,-0.0525328628718853,-0.4691306948661804,0.0232121963053941,#
-2.400001049041748,-9.061619758605955,1.6175479888916016,-0.1600419729948043,-0.4202629029750824,-0.031764056533575,#
-1.6821542978286743,-8.657232284545898,0.3780659735202789,-0.2492256760597229,-0.4593571126461029,-0.1123958900570869,#
-0.9116654396057128,-10.10488986968994,0.6675975918769836,-0.0659715011715889,-0.6267292499542236,-0.069636583328247,#
-0.8398807048797607,-9.186046600341797,3.0269205570220947,0.1514901220798492,-1.045770525932312,0.0085518611595034,#
-0.8398807048797607,-9.186046600341797,3.0269205570220947,-1.0152281522750854,-1.2033690214157104,0.0012216945178806,#
-1.4811571836471558,-9.516255378723145,2.1822540760040283,-1.4208307266235352,-1.178935170173645,-0.0635281130671501,#
-1.7084753513336182,-11.038090705871582,1.179661512374878,-1.0298885107040403,-1.0983033180236816,-0.3090887069702148,#
-1.215553879737854,-9.439685821533203,3.1800613403320312,0.0415376126766204,-0.8869501948356628,-0.3176405727863312,#
-0.3661018908023834,-9.090332984924316,3.670589685440064,0.3359659910202026,-0.9150491952896118,-0.2663294076919555,#
-0.3661018908023834,-9.090332984924316,3.670589685440064,0.2162399291992187,-1.3951750993728638,-0.1905843466520309,#
0.2991028428077698,-10.949556350708008,4.120440483093262,-0.2504473626613617,-1.5698773860931396,-0.287098228931427,#
-0.0622133873403072,-9.913464546203612,3.232703685760498,-0.3054236173629761,-1.1691615581512451,-0.5729747414588928,#
0.3254238963127136,-8.757731437683105,1.2323036193847656,0.5729747414588928,-0.9150491952896118,-0.6780403852462769,#
1.4859429597854614,-7.953742504119873,1.1030912399291992,1.0946382284164429,-0.8405258059501648,-0.7452336549758911,#
2.47896409034729,-10.22931671142578,5.333601474761963,1.0347752571105957,-0.6145123243331909,-0.7110261917114258,#
2.47896409034729,-10.22931671142578,5.333601474761963,0.2944283783435821,0.3946073353290558,-0.6071821451187134,#
2.1367905139923096,-9.858428955078123,6.664010524749756,0.2516690790653229,0.966360330581665,-0.5754181146621704,#
2.4957141876220703,-8.901299476623535,5.927021503448486,0.0146603342145681,1.3316470384597778,-0.4532486498355865,right
3.38823676109314,-9.643074989318848,4.599005222320557,-0.5008947253227234,1.2534584999084473,-0.3432961404323578,right
4.177868366241455,-11.19362449645996,5.056034088134766,-0.7757760286331177,1.3145432472229004,-0.2223483920097351,right
4.177868366241455,-11.19362449645996,5.056034088134766,-0.786771297454834,1.715259075164795,-0.1087308079004287,right
4.972285747528076,-11.34676456451416,6.783651828765869,-0.6707102656364441,1.9449377059936523,-0.1624853760004043,right
5.795416355133057,-10.411171913146973,6.886543273925781,-0.2309002727270126,2.2784602642059326,-0.3151971697807312,right
6.809973239898682,-9.253045082092283,5.072784423828125,0.1918060332536697,2.4800398349761963,-0.4141544103622436,right
7.16650390625,-10.566704750061035,4.232903003692627,0.1588202863931656,2.624199867248535,-0.463022232055664,right
7.16650390625,-10.566704750061035,4.232903003692627,-0.0940704718232154,3.2008395195007324,-0.5680879354476929,right
7.29093074798584,-11.533404350280762,5.058426856994629,-0.3090887069702148,4.0340352058410645,-0.5888567566871643,right
7.482356548309326,-10.164710998535156,3.957728624343872,-0.1038440242409706,4.217289447784424,-0.6377245187759399,right
7.822136878967285,-9.992427825927734,2.888136863708496,0.4801259338855743,4.520269393920898,-0.5607577562332153,right
7.599604606628418,-11.669795989990234,0.6939185857772827,0.3579564988613128,4.704745769500732,-0.4642439186573028,right
7.085147857666016,-13.94297695159912,-1.0695916414260864,0.0598630309104919,5.164103031158447,-0.4275930821895599,right
7.085147857666016,-13.94297695159912,-1.0695916414260864,0.3799469769001007,5.684544086456299,-0.4508052766323089,right
6.608975887298584,-12.729815483093262,0.9930213689804076,0.9675819873809814,5.970420837402344,-0.574196457862854,right
5.72123908996582,-10.997413635253906,0.3684946894645691,2.1098663806915283,6.382132053375244,-0.939483106136322,right
5.838487148284912,-11.770294189453123,-2.7182462215423584,2.102536201477051,5.708978652954102,-0.9907942414283752,right
5.778666496276856,-13.131810188293455,-4.084547996520996,1.5882028341293335,5.33391809463501,-0.8466342687606812,right
5.778666496276856,-13.131810188293455,-4.084547996520996,0.5827482342720032,5.363238334655762,-0.6255075931549072,right
3.8524444103240967,-13.978869438171388,-7.243074417114258,0.5644228458404541,5.578257083892822,-0.5900784730911255,right
1.5481561422348022,-12.815958023071287,-7.549355506896973,1.7421363592147827,5.99485445022583,-0.7684457898139954,right
-0.4211367666721344,-10.413564682006836,-8.398807525634766,2.666959047317505,6.570272922515869,-1.1826002597808838,right
-1.447657585144043,-10.939985275268556,-6.281159400939941,2.343209981918335,6.424891471862793,-1.3108781576156616,right
-0.8853443264961243,-11.765508651733398,-5.257031440734863,0.8258654475212097,5.132338523864746,-1.1264023780822754,right
-0.8853443264961243,-11.765508651733398,-5.257031440734863,-0.712247908115387,3.856889486312866,-0.7476770281791687,right
-1.529013752937317,-11.564510345458984,-8.358129501342773,-0.7757760286331177,3.1837358474731445,-0.5387672781944275,right
-3.0173492431640625,-10.00439167022705,-10.25324535369873,0.0488677769899368,2.434837102890014,-0.1649287492036819,right
-3.9218363761901855,-9.901500701904297,-5.905486583709717,0.1392731666564941,1.9815884828567505,0.1038440242409706,right
-3.2207393646240234,-11.581260681152344,-0.902094066143036,-0.1062874197959899,1.637070655822754,0.1722589135169983,right
-3.2207393646240234,-11.581260681152344,-0.902094066143036,-0.0928487852215766,0.6707102656364441,0.1453816443681717,right
-2.313859462738037,-10.284351348876951,-0.1938186287879943,0.256555825471878,0.2773246467113495,0.1930277347564697,right
-2.837887763977051,-8.358129501342773,-1.7922240495681765,1.0750911235809326,0.1404948681592941,0.2541124522686004,right
-3.7878382205963135,-8.183453559875488,-4.807180881500244,0.8771765828132629,0.4410317242145538,0.0171037223190069,right
-3.5700912475585938,-9.19561767578125,-1.1437692642211914,0.6426112651824951,0.4532486498355865,-0.0574196390807628,right
-3.5700912475585938,-9.19561767578125,-1.1437692642211914,-0.3457395434379577,0.3286358118057251,0.0635281130671501,right
-2.0793628692626958,-9.822537422180176,4.383650779724121,-0.9126058220863342,0.2235700935125351,0.0733016654849052,#
-1.2801601886749268,-10.62173843383789,2.895315170288086,-0.9345962405204772,0.0476460866630077,0.130721315741539,#
-2.560320377349853,-9.413363456726074,0.97148597240448,0.0794101431965828,0.1075091138482093,0.130721315741539,#
-3.31166672706604,-8.843873023986816,0.0430708117783069,-0.0048867780715227,0.1148392781615257,0.0952921733260154,#
-2.730210542678833,-10.143176078796388,-0.277567446231842,-0.5082249045372009,-0.0476460866630077,0.0574196390807628,#
-2.730210542678833,-10.143176078796388,-0.277567446231842,-0.6633800864219666,-0.2137965410947799,0.2064663618803024,#
-1.6247265338897705,-11.533404350280762,1.648654818534851,-0.5656445622444153,-0.2516690790653229,0.3029802441596985,#
-1.0193424224853516,-10.607381820678713,1.428515076637268,-0.4019374847412109,-0.1820324808359146,0.3445178270339966,#
-1.4691929817199707,-9.973284721374512,-0.4019941985607147,0.3921639025211334,-0.1172826737165451,0.2761029601097107,#
-1.9262222051620483,-9.650253295898438,0.1196411252021789,0.5326588153839111,-0.2553341388702392,0.21135313808918,#
-1.9262222051620483,-9.650253295898438,0.1196411252021789,-0.178367406129837,-0.6291726231575012,0.2150182276964187,#
-1.7754744291305542,-11.203195571899414,0.7968099117279053,-0.5595360994338989,-0.8356390595436096,0.2541124522686004,#
-1.7635102272033691,-12.114861488342283,0.705882728099823,-0.3054236173629761,-1.2058125734329224,0.2345653474330902,#
-1.6175479888916016,-9.664610862731934,-0.5407779216766357,0.2284568697214126,-1.3670761585235596,0.2724378705024719,#
-0.8709874749183655,-8.123632431030273,1.0193424224853516,0.3090887069702148,-1.4843589067459106,0.3249707520008087,#
-1.0600204467773438,-10.695917129516602,4.051048755645752,-0.0916270837187767,-1.6285187005996704,0.4727957546710968,#
-1.0600204467773438,-10.695917129516602,4.051048755645752,-0.4312581717967987,-1.492910623550415,0.6707102656364441,#
-1.6103696823120115,-12.174681663513184,4.005585193634033,-0.0684148892760276,-1.539335012435913,0.7049177289009094,#
-1.5409778356552124,-9.487542152404783,2.266003131866455,1.0042328834533691,-1.6358489990234375,0.8160918951034546,#
-1.356730580329895,-7.503891944885254,2.665604591369629,1.3316470384597778,-1.645622491836548,0.9003888368606567,#
-1.3782659769058228,-8.382057189941406,4.579862117767334,0.6426112651824951,-1.6627261638641355,0.8771765828132629,#
-1.3782659769058228,-8.382057189941406,4.579862117767334,-0.8112051486968994,-1.666391372680664,0.6120689511299133,#
-1.672582983970642,-10.861021995544434,5.599205493927002,-0.9724688529968262,-1.6566176414489746,0.5192201733589172,#
-1.6965112686157229,-10.001997947692873,4.730610370635986,-0.3530696928501129,-1.5185662508010864,0.5705313086509705,#
-1.782652735710144,-8.34855842590332,3.050848960876465,0.7342383861541748,-1.3426421880722046,0.684148907661438,#
-1.519442439079285,-7.788637638092041,3.2781667709350586,0.8417474627494812,-1.2876659631729126,0.6707102656364441,#
-1.519442439079285,-7.788637638092041,3.2781667709350586,0.0855186134576797,-1.225359559059143,0.5717529654502869,#
-1.5481561422348022,-8.551947593688965,4.898108005523682,-0.5338804721832275,-1.2143642902374268,0.494786262512207,#
-2.2133607864379883,-9.111868858337402,5.206782341003418,-1.0042328834533691,-1.290109395980835,0.3298574984073639,#
-2.0673987865448,-8.685946464538574,3.44327163696289,-0.6157339811325073,-1.4098354578018188,0.3848337531089782,#
-1.765903115272522,-8.382057189941406,1.88075852394104,-0.3200839459896087,-1.4196090698242188,0.4666872918605804,#
-1.66301167011261,-9.547362327575684,3.060420036315918,-0.123391143977642,-1.2473500967025757,0.6474980711936951,#
-1.66301167011261,-9.547362327575684,3.060420036315918,-0.4007157981395721,-0.9529216885566713,0.7293516397476196,#
-1.7706886529922483,-9.487542152404783,5.347958564758301,-0.6389462351799011,-0.9211575984954834,0.6365028619766235,#
-2.577069997787476,-9.044869422912598,5.989234924316406,-0.6902573704719543,-1.031110167503357,0.31641885638237,#
-2.943171739578247,-8.84626579284668,4.244867324829102,-0.3323009014129638,-1.237576603889465,0.261442631483078,#
-2.7349963188171387,-8.200202941894531,1.6199408769607544,-0.1942494213581085,-1.3108781576156616,0.2834331095218658,#
-2.7349963188171387,-8.200202941894531,1.6199408769607544,-0.1942494213581085,-1.3230950832366943,0.2956500649452209,#
-2.3569302558898926,-8.542377471923828,1.6199408769607544,-0.3506263196468353,-1.2314679622650146,0.2919849753379822,#
-2.364108800888061,-9.717252731323242,3.945764780044556,-0.8246437907218933,-1.0054545402526855,0.2724378705024719,#
-2.522034883499145,-10.382457733154297,4.283152580261231,-0.7354600429534912,-1.022558331489563,0.1575985848903656,#
-2.768495798110962,-8.72662353515625,3.838087558746338,-0.3787252902984619,-1.1129636764526367,0.1453816443681717,#
-2.768495798110962,-8.72662353515625,3.838087558746338,0.0268772784620523,-1.2705622911453247,0.333522617816925,#
-2.799602746963501,-8.896513938903809,2.981456995010376,-0.0659715011715889,-1.4635900259017944,0.4153760969638824,#
-2.3712873458862305,-9.69093132019043,1.9621145725250244,-0.2089097648859024,-1.4770286083221436,0.4312581717967987,#
-2.3258235454559326,-10.614561080932615,2.577069997787476,-0.1417165547609329,-1.3023263216018677,0.4679089784622192,#
-2.562713146209717,-10.176674842834473,3.081955671310425,0.0171037223190069,-1.1972606182098389,0.4642439186573028,#
-3.201596736907959,-8.501699447631836,2.847458839416504,0.5289937257766724,-1.0848647356033323,0.3408527672290802,#
-3.201596736907959,-8.501699447631836,2.847458839416504,0.7354600429534912,-1.1496145725250244,0.3640649616718292,#
-4.177868366241455,-8.733802795410156,1.6462620496749878,0.5888567566871643,-1.2632319927215576,0.4190412163734436,#
-5.312066078186035,-10.03549861907959,-1.7012970447540283,0.1979145109653473,-1.440377712249756,0.4593571126461029,#
-4.852644443511963,-9.973284721374512,-1.7635102272033691,-0.1246128380298614,-1.7396929264068604,0.411711037158966,#
-3.25663161277771,-9.944571495056152,1.710868239402771,-0.471574068069458,-1.9901403188705444,0.4544703662395477,#
-3.25663161277771,-9.944571495056152,1.710868239402771,-0.9003888368606567,-2.6865062713623047,0.4556920528411865,#
-3.4480574131011963,-10.971091270446776,1.7491532564163208,-0.7660024166107178,-3.0395758152008057,0.4972296357154846,#
-3.9912283420562735,-9.722038269042969,-2.4981069564819336,-1.1654964685440063,-3.60399866104126,0.84541255235672,#
-3.4025940895080566,-7.783851623535156,-1.6031911373138428,-1.747023105621338,-3.954624891281128,0.965138614177704,#
-1.801795244216919,-7.28375244140625,3.5437703132629395,-2.250361204147339,-4.031591892242432,0.893058717250824,#
-0.6699903011322021,-8.707481384277344,7.197610855102539,-3.123872995376587,-4.040143966674805,0.7146912813186646,#
-0.6699903011322021,-8.707481384277344,7.197610855102539,-3.474499225616455,-4.492170810699463,0.4495835602283478,#
0.3254238963127136,-8.322237014770508,6.628118515014648,-3.3694334030151367,-4.62777853012085,0.2773246467113495,#
1.3974084854125977,-6.955935001373291,-0.3493521213531494,-2.4397237300872803,-4.500722408294678,0.1197260618209838,#
5.228317260742188,-8.300702095031738,7.161717891693115,0.1539334952831268,-4.644882678985596,-0.1453816443681717,#
11.334800720214844,-6.783651828765869,16.62533187866211,0.7220214009284973,-4.143987655639648,-0.1417165547609329,#
11.334800720214844,-6.783651828765869,16.62533187866211,0.0183254163712263,-1.1764918565750122,-0.7244647741317749,#
8.262415885925293,-10.04985523223877,15.352350234985352,0.9920158982276917,-0.2309002727270126,-1.534448266029358,right
7.621140003204346,-7.317252159118652,11.344371795654297,2.007244110107422,0.4911211729049682,-1.6236319541931152,right
11.547762870788574,-8.372486114501953,10.918450355529783,1.9388291835784912,0.5632011890411377,-1.244906663894653,right
11.729616165161133,-10.313065528869627,11.119447708129885,1.429382562637329,0.8344173431396484,-1.2974395751953125,right
11.729616165161133,-10.313065528869627,11.119447708129885,0.1429382413625717,2.238144397735596,-1.3230950832366943,right
9.738788604736328,-10.348958015441896,9.707681655883787,-0.007330167107284,3.243598937988281,-1.2192511558532717,right
10.437491416931152,-11.2366943359375,8.288737297058105,0.0061084721237421,3.3254523277282715,-1.1618314981460571,right
10.28913688659668,-10.750951766967772,6.537191867828369,0.2186833024024963,3.355994701385498,-1.1166287660598757,right
9.18126106262207,-10.143176078796388,5.843273162841797,0.411711037158966,3.49282455444336,-1.1312891244888306,right
8.724230766296387,-10.652846336364746,5.843273162841797,0.42270627617836,4.031591892242432,-1.0946382284164429,right
8.724230766296387,-10.652846336364746,5.843273162841797,-0.0232121963053941,4.360227584838867,-1.0103412866592407,right
8.898907661437988,-11.176874160766602,6.005984783172607,-0.1331647038459777,4.545925140380859,-1.0176715850830078,right
9.346364974975586,-11.667403221130373,4.6995038986206055,0.1624853760004043,4.894108295440674,-1.0140063762664795,right
9.937392234802246,-10.28913688659668,1.919043779373169,1.012784719467163,5.286272048950195,-1.0152281522750854,right
9.90867805480957,-10.698309898376465,-0.1962114423513412,0.8014315962791443,5.468304634094238,-0.9675819873809814,right
9.90867805480957,-10.698309898376465,-0.1962114423513412,-0.3591781854629516,5.877572059631348,-0.7550071477890015,right
8.786444664001465,-11.78465175628662,-0.8327022790908813,-0.891836941242218,6.145123481750488,-0.6413896083831787,right
7.195217609405518,-12.5264253616333,-1.4644075632095337,-0.4556920528411865,6.396791934967041,-0.6413896083831787,right
5.61116886138916,-12.473784446716309,-5.374279499053955,1.572320818901062,6.093811988830566,-0.8612945675849915,right
4.374079704284668,-10.564311981201172,-8.059026718139648,2.598544120788574,5.988746643066406,-1.0653176307678225,right
3.06999135017395,-11.124231338500977,-11.801401138305664,2.2344791889190674,5.619794845581055,-1.3658545017242432,right
3.06999135017395,-11.124231338500977,-11.801401138305664,-0.3359659910202026,5.805492401123047,-1.2424633502960205,right
-1.0791629552841189,-14.766107559204102,-18.32662773132324,-1.1068552732467651,5.684544086456299,-1.119072198867798,right
-6.659225463867188,-17.666210174560547,-15.627523422241213,-0.6939224600791931,5.298489093780518,-0.8478559851646423,right
-7.190432548522949,-16.22812271118164,-10.226923942565918,-0.3310791850090027,5.066367149353027,-0.8112051486968994,right
-2.931207656860352,-11.023734092712402,-9.166903495788574,1.381736397743225,1.91317355632782,-0.4801259338855743,right
-2.931207656860352,-11.023734092712402,-9.166903495788574,1.610193371772766,-0.601073682308197,0.9797989726066588,right
-3.280559778213501,-10.609774589538574,-7.135397434234619,0.8674030900001526,-0.95658677816391,1.280335783958435,right
-4.912464618682861,-13.4763765335083,-5.01296329498291,-0.8173136115074158,-0.2101314514875412,0.9541434049606324,right
-4.587040901184082,-13.37109375,-2.0817556381225586,-1.640735745429993,-0.2040229737758636,0.5619794726371765,#
-3.1130621433258057,-10.97348403930664,1.758724570274353,-1.4660333395004272,-0.5974085927009583,0.5827482342720032,#
-3.1130621433258057,-10.97348403930664,1.758724570274353,-0.4923428893089294,-0.9736905097961426,1.0274450778961182,#
-2.9240293502807617,-8.85105037689209,2.825923442840576,-0.1966928243637085,-0.9700254201889038,1.1752701997756958,#
-3.38105845451355,-8.262415885925293,0.5982056856155396,0.6291726231575012,-1.0091196298599243,1.0347752571105957,#
-3.460021495819092,-7.338787078857422,-0.3373879790306091,1.0372185707092283,-0.8979454636573792,0.9810206294059752,#
-2.723031997680664,-6.908078193664551,0.4115655124187469,1.0042328834533691,-0.9504783153533936,1.0188932418823242,#
-1.969292998313904,-7.491927623748779,2.991028308868408,0.3738385140895843,-1.0140063762664795,0.9455915093421936,#
-1.969292998313904,-7.491927623748779,2.991028308868408,-0.6914790868759155,-0.84541255235672,0.6768187284469604,#
-2.5986053943634038,-8.049454689025879,4.460221290588379,-1.1080769300460815,-0.8380824327468872,0.4935645759105682,#
-3.464807271957397,-7.94177770614624,2.4813570976257324,-1.0592091083526611,-1.0848647356033323,0.1368297785520553,#
-3.2542388439178467,-7.661818027496338,-0.397208571434021,-0.5974085927009583,-1.5478869676589966,0.1844758540391922,#
-1.5912269353866575,-9.657432556152344,0.2560320198535919,-0.5790832042694092,-1.7812305688858032,0.31641885638237,#
-1.5912269353866575,-9.657432556152344,0.2560320198535919,-0.4349232316017151,-2.3847475051879883,0.4495835602283478,#
-0.1842473447322845,-10.892127990722656,2.8187451362609863,-0.546097457408905,-2.522799253463745,0.5448757410049438,#
-0.8566305041313171,-9.951749801635742,2.177468776702881,-0.3408527672290802,-2.2870118618011475,0.6572716236114502,#
-1.916650891304016,-8.666803359985352,0.6460621356964111,0.1918060332536697,-2.6132044792175293,0.4092676639556885,#
-2.1846470832824707,-8.47298526763916,0.4187439680099487,0.1649287492036819,-2.768359661102295,0.3432961404323578,#
-2.1846470832824707,-8.47298526763916,0.4187439680099487,-0.7220214009284973,-2.9662742614746094,0.4752391576766968,#
-1.6965112686157229,-9.78664493560791,1.7539390325546265,-1.382958173751831,-3.164188861846924,0.6487197875976562,#
-0.8566305041313171,-11.251051902770996,1.8664016723632808,-1.1997039318084717,-3.390202283859253,0.6145123243331909,#
-0.3230310678482055,-9.990034103393556,1.954936146736145,-0.2797680497169494,-3.474499225616455,0.7024743556976318,#
-0.5766702890396118,-9.269794464111328,4.07258415222168,0.0244338884949684,-3.3767635822296143,0.8490777015686035,#
-1.289731502532959,-9.023333549499512,5.972485065460205,0.0513111688196659,-3.0395758152008057,0.9419264793395996,#
-1.289731502532959,-9.023333549499512,5.972485065460205,-0.7024743556976318,-2.869760513305664,0.9492565989494324,#
-1.5481561422348022,-9.556933403015137,5.685347080230713,-0.7562289237976074,-2.878312110900879,0.9077189564704896,#
-0.7489535212516785,-8.360522270202637,6.764510154724121,-0.3261924386024475,-2.8856422901153564,0.785549521446228,#
-0.7393822073936462,-8.102097511291504,6.845865249633789,-0.1808107793331146,-2.608317613601685,0.8942803740501404,#
-1.1772687435150146,-8.178668022155762,6.67836856842041,0.0684148892760276,-2.6718456745147705,0.8783983588218689,#
-1.1772687435150146,-8.178668022155762,6.67836856842041,-0.0219905003905296,-2.863651990890503,0.8869501948356628,#
-1.509871006011963,-8.183453559875488,5.039284706115723,-0.2406738102436065,-2.563115119934082,1.007897973060608,#
-1.428515076637268,-8.863015174865723,4.419543266296387,-0.4691306948661804,-1.7482447624206543,0.9749122262001038,#
-0.784845769405365,-9.193224906921388,4.989035129547119,-0.8099834322929382,-1.674943208694458,0.5888567566871643,#
-0.3230310678482055,-9.535398483276367,5.539384365081787,-0.873511552810669,-1.771456956863403,0.494786262512207,#
-0.6747759580612183,-9.030512809753418,6.357729434967041,-0.5522059202194214,-1.7506881952285769,0.5888567566871643,#
-0.6747759580612183,-9.030512809753418,6.357729434967041,-0.4874561131000519,-1.347529053688049,0.6853706240653992,#
-0.8303093910217285,-8.635696411132812,6.943971633911133,-0.5363238453865051,-1.2314679622650146,0.5961868762969971,#
-0.7513462901115417,-8.5160551071167,6.32662296295166,-0.4373666048049927,-1.4587032794952393,0.3738385140895843,#
-0.6340980529785156,-7.908278465270996,4.127618789672852,-0.1722589135169983,-1.51734459400177,0.3200839459896087,#
-0.8350951075553894,-7.685746192932129,3.739981651306152,-0.0720799788832664,-1.3841798305511477,0.287098228931427,#
-0.8350951075553894,-7.685746192932129,3.739981651306152,-0.2809897363185882,-1.2497934103012085,0.2809897363185882,#
-0.7010970115661621,-8.030312538146973,5.192424774169922,-0.6193991303443909,-1.1569446325302124,0.3323009014129638,#
-0.8566305041313171,-8.623733520507812,5.388636112213135,-0.9174925684928894,-0.8906152844429016,0.2052446752786636,#
-1.3998013734817505,-8.767301559448242,4.419543266296387,-0.7623373866081238,-0.8991671204566956,0.2052446752786636,#
-1.4093725681304932,-8.12123966217041,3.38105845451355,-0.6267292499542236,-0.9358179569244384,-0.0354291386902332,#
-1.4093725681304932,-8.12123966217041,3.38105845451355,-0.3799469769001007,-0.9675819873809814,-0.0635281130671501,#
-0.7322037816047668,-8.70508861541748,4.01754903793335,-0.2846547961235046,-1.192373752593994,-0.069636583328247,#
0.0071784676983952,-8.465806007385254,5.938986301422119,-0.2944283783435821,-1.16427481174469,-0.0500894747674465,#
-0.1028913781046867,-7.192824840545654,6.647261142730713,0.0537545569241046,-0.7525637745857239,-0.1539334952831268,#
-0.1244267746806144,-7.142575740814209,7.025327682495117,0.256555825471878,-0.5815265774726868,-0.2577775418758392,#
0.8470591902732849,-9.76989459991455,5.374279499053955,0.0977355539798736,-0.5839699506759644,-0.3677300214767456,#
0.8470591902732849,-9.76989459991455,5.374279499053955,-0.0586413368582725,-0.712247908115387,-0.5522059202194214,#
1.239482045173645,-10.640881538391112,5.010570526123047,0.2174616158008575,-0.7403469085693359,-0.7146912813186646,#
2.1439690589904785,-6.0610198974609375,7.465606689453125,1.1031900644302368,-0.3982723951339721,-0.8002098798751831,#
2.988635540008545,-5.991628170013428,9.133403778076172,0.8710681796073914,0.7110261917114258,-0.6071821451187134,right
3.94097900390625,-9.35832977294922,10.497312545776367,0.4703523814678192,1.0494356155395508,-0.6084038615226746,right
3.94097900390625,-9.35832977294922,10.497312545776367,-0.785549521446228,1.1520578861236572,-0.833195686340332,right
5.221138954162598,-11.052447319030762,7.843672752380371,-0.7537854909896851,1.268118977546692,-0.8710681796073914,right
5.788238048553467,-8.702695846557617,7.534998416900635,0.1832541674375534,1.453816533088684,-0.8564078211784363,right
7.386643409729004,-7.087540626525879,13.107882499694824,0.707361102104187,2.3395450115203857,-1.0726476907730105,right
8.95394229888916,-7.70249605178833,11.686546325683594,0.2956500649452209,2.8709819316864014,-1.2155860662460327,right
8.793622970581055,-5.577669143676758,8.85105037689209,0.2895416021347046,3.216721534729004,-1.4794719219207764,right
8.793622970581055,-5.577669143676758,8.85105037689209,0.3677300214767456,3.831233978271485,-1.4843589067459106,right
7.369894027709961,-5.979663372039795,5.793023586273193,0.2553341388702392,4.307694911956787,-1.5552170276641846,right
7.101897716522217,-8.918049812316895,4.25922441482544,0.069636583328247,4.631443500518799,-1.7555750608444214,right
6.776473522186279,-10.456634521484377,5.376672744750977,0.1612636744976043,4.544703483581543,-1.8410935401916504,right
5.682953834533691,-9.96131992340088,6.9511494636535645,0.517998456954956,5.019942760467529,-1.9339423179626465,right
5.682953834533691,-9.96131992340088,6.9511494636535645,1.1251806020736694,5.359573841094971,-2.3041157722473145,right
6.096912384033203,-9.719645500183104,4.484149932861328,1.172826647758484,5.263059616088867,-2.4336154460906982,right
7.508677005767822,-11.90907859802246,1.706082463264465,0.6719319820404053,4.817141532897949,-2.3908562660217285,right
7.197610855102539,-16.02952003479004,1.7515461444854736,0.9333745837211608,5.002838611602783,-2.351761817932129,right
4.5391845703125,-13.284950256347656,0.277567446231842,1.6016414165496826,5.338804721832275,-2.368865489959717,right
4.5391845703125,-13.284950256347656,0.277567446231842,3.0078117847442627,5.557487964630127,-2.6449685096740723,right
2.337787628173828,-10.829915046691896,-4.125226020812988,2.840439558029175,5.034603118896484,-2.858765125274658,right
0.0071784676983952,-12.624531745910645,-5.046462535858154,1.698155403137207,4.770717144012451,-2.7268221378326416,right
-0.1363908797502517,-18.11366844177246,-4.991428375244141,-0.7928797006607056,3.816573619842529,-2.0414514541625977,right
0.0095712905749678,-17.697317123413086,-5.134997367858887,-1.47825026512146,3.115320920944214,-1.665169596672058,right
-1.9070796966552732,-14.577075958251951,-5.106283187866211,-1.0726476907730105,1.8801878690719604,-1.0103412866592407,right
-1.9070796966552732,-14.577075958251951,-5.106283187866211,0.4104893505573272,1.382958173751831,-0.6169556975364685,right
-2.8833510875701904,-13.088740348815918,-1.5457634925842283,0.6279509663581848,1.268118977546692,-0.5485408306121826,right
-2.3784656524658203,-12.287144660949709,-0.9786643981933594,0.8710681796073914,1.0372185707092283,-0.4337015450000763,right
-2.1918253898620605,-10.88016414642334,-1.588834285736084,1.2620103359222412,0.577861487865448,-0.1087308079004287,#
-1.9453648328781128,-10.499706268310549,-0.4187439680099487,0.9529216885566713,0.4569137394428253,0.0818535313010215,#
-1.9453648328781128,-10.499706268310549,-0.4187439680099487,-0.1343863904476165,0.3261924386024475,0.2333436459302902,#
-1.4715858697891235,-10.77488136291504,0.4331009089946747,-0.5595360994338989,0.1930277347564697,0.2834331095218658,#
-1.246660590171814,-11.693723678588867,1.411765456199646,-0.605960488319397,-0.1123958900570869,0.411711037158966,#
-1.1437692642211914,-10.856236457824709,1.8664016723632808,-0.0219905003905296,-0.0464243926107883,0.4642439186573028,#
-0.8422735333442688,-10.030712127685549,2.352144718170166,0.3225273489952087,0.0452026948332786,0.4752391576766968,#
-0.3086740970611572,-9.28893756866455,4.965107440948486,0.8576295375823975,0.1185043603181839,0.4605787992477417,#
-0.3086740970611572,-9.28893756866455,4.965107440948486,0.8405258059501648,-0.0659715011715889,0.4691306948661804,#
-0.969093143939972,-6.398407459259033,5.962913990020752,0.7036960124969482,-0.1856975704431533,0.4691306948661804,#
-2.390429735183716,-5.137389659881592,5.079962730407715,0.5558710098266602,-0.4349232316017151,0.5570926666259766,#
-2.115255117416382,-5.711667537689209,1.6342979669570925,0.549762487411499,-0.6560499668121338,0.6438329815864563,#
-1.6797614097595217,-9.109475135803224,1.093519926071167,0.634059488773346,-0.6462763547897339,0.9162708520889282,#
-1.6797614097595217,-9.109475135803224,1.093519926071167,0.5253286361694336,-0.5057815313339233,1.0066763162612915,#
-0.6364907622337341,-9.322437286376951,4.357330322265625,-0.3054236173629761,-0.4837909936904907,0.9529216885566713,#
-1.1509476900100708,-8.9850492477417,6.807580471038818,-0.84541255235672,-0.3127537965774536,0.5595360994338989,#
-2.232503652572632,-7.058826446533203,6.67836856842041,0.1649287492036819,-0.4373666048049927,0.3029802441596985,#
-2.945564746856689,-6.781259536743164,4.989035129547119,0.388498842716217,-0.6694886088371277,0.3982723951339721,#
-2.945564746856689,-6.781259536743164,4.989035129547119,0.1893626451492309,-1.1215155124664309,0.6279509663581848,#
-2.823530912399292,-7.350750923156738,1.0456634759902954,-0.0549762547016143,-1.2937743663787842,0.6792621612548828,#
-1.497907042503357,-8.870193481445312,1.574477195739746,-0.7843278050422668,-1.4916889667510986,0.6902573704719543,#
-1.2323036193847656,-10.368099212646484,5.039284706115723,-1.4220523834228516,-0.9944592714309692,0.6755970120429993,#
-2.313859462738037,-9.923035621643066,5.364708423614502,-1.1581664085388184,-0.7061393857002258,0.52655029296875,#
-2.603391170501709,-7.712067127227783,4.651647090911865,0.494786262512207,-0.8661814332008362,0.4202629029750824,#
-2.603391170501709,-7.712067127227783,4.651647090911865,0.7598939538002014,-1.3255385160446167,0.8490777015686035,#
-2.050648927688598,-8.315058708190918,4.19701099395752,0.3115321099758148,-1.5368915796279907,0.9407047629356384,#
-1.2179466485977173,-8.482556343078613,2.914458036422729,-0.8246437907218933,-1.9681499004364011,0.8197570443153381,#
-0.906879723072052,-9.489934921264648,1.935793399810791,-1.7335845232009888,-2.203936815261841,0.836860716342926,#
-0.9786643981933594,-13.576875686645508,2.9288151264190674,-1.8691924810409544,-2.1257483959198,0.9639169573783876,#
-0.9786643981933594,-13.576875686645508,2.9288151264190674,-1.5588821172714231,-1.8435369729995728,1.1752701997756958,#
-0.6915256977081299,-12.79920768737793,4.441079139709473,-1.37684965133667,-1.852088928222656,1.1740483045578003,#
-1.430907964706421,-9.8871431350708,5.414957523345947,-1.0176715850830078,-2.126970052719116,1.1850436925888062,#
-1.674975872039795,-10.368099212646484,5.907878875732422,-1.1569446325302124,-2.6193130016326904,1.3389772176742554,#
-1.4620146751403809,-10.040283203125,5.680561065673828,-1.0885297060012815,-2.90396785736084,1.4318259954452517,#
-1.4620146751403809,-10.040283203125,5.680561065673828,-0.9700254201889038,-3.398754119873047,1.538113355636597,#
-0.9379864931106568,-9.573683738708496,2.9623143672943115,-0.6560499668121338,-3.535583972930908,1.5588821172714231,#
-0.0382851622998714,-10.411171913146973,1.9716858863830569,-0.3603998720645904,-3.341334342956543,1.610193371772766,#
1.2059825658798218,-9.540184020996094,5.1637115478515625,-0.2418954968452453,-2.828222751617432,1.767791986465454,#
0.6221339106559753,-8.700303077697754,8.417949676513672,-0.4801259338855743,-2.554563045501709,1.7812305688858032,#
0.2153540551662445,-10.48534870147705,6.120840072631836,-1.1129636764526367,-2.548454761505127,1.6199668645858765,#
0.2153540551662445,-10.48534870147705,6.120840072631836,-0.7098045349121094,-2.568001747131348,1.539335012435913,#
-0.760917603969574,-9.205188751220703,4.95792818069458,-0.2736595571041107,-2.464157819747925,1.5967546701431274,#
-0.705882728099823,-7.149754047393799,6.604190349578857,-0.1160609796643257,-2.465379476547241,1.7238109111785889,#
0.0717846825718879,-7.341179370880127,7.185646057128906,-0.411711037158966,-2.660850763320923,1.6871600151062012,#
0.0933200791478157,-9.075976371765137,5.407779216766357,-0.8075400590896606,-2.7414824962615967,1.6150801181793213,#
0.0933200791478157,-9.075976371765137,5.407779216766357,-1.837428450584412,-2.757364511489868,1.5686556100845337,#
0.0382851622998714,-7.83410120010376,2.1894328594207764,-2.5875487327575684,-2.740260601043701,1.6004197597503662,#
0.2727817595005035,-9.24825954437256,3.515056610107422,-2.901524305343628,-2.594879150390625,1.2827792167663574,#
0.4450649619102478,-10.24606704711914,7.977671146392822,-2.659628868103028,-2.5044736862182617,0.9834640026092528,#
0.9906285405158995,-9.77707290649414,7.838886737823486,-2.399407863616944,-2.515469074249268,0.9639169573783876,#
0.6771688461303711,-8.664410591125488,6.300302028656006,-0.96147358417511,-2.649855375289917,0.7647807598114014,#
0.6771688461303711,-8.664410591125488,6.300302028656006,1.0958600044250488,-2.085432529449463,0.4740174412727356,#
0.2177468687295913,-6.570690631866455,2.730210542678833,1.8019993305206297,-1.7177023887634275,0.4935645759105682,#
0.7106683850288391,-7.377072334289551,2.0889341831207275,2.381082773208618,-1.414722204208374,0.63283771276474,#
2.196611166000366,-7.738388061523437,6.814758777618408,2.0548901557922363,-1.4733635187149048,0.5729747414588928,#
1.294516921043396,-8.403593063354492,7.070791244506836,0.3371876776218414,-0.8845068216323853,0.2993151545524597,#
1.294516921043396,-8.403593063354492,7.070791244506836,0.3775035738945007,0.1148392781615257,-0.2211267054080963,#
-0.397208571434021,-6.903293132781982,6.223731517791748,0.0952921733260154,0.287098228931427,-0.2724378705024719,#
-0.4953142702579498,-7.374679565429687,3.905086755752564,-0.6548282504081726,0.0916270837187767,-0.0781884491443634,#
-0.1770688742399215,-8.86780071258545,1.8616160154342647,-0.7379034161567688,0.0146603342145681,-0.0561979450285434,#
-0.1316052377223968,-11.11466121673584,4.278366565704346,-0.7916580438613892,-0.007330167107284,-0.0232121963053941,#
-0.1316052377223968,-11.11466121673584,4.278366565704346,-0.6853706240653992,-0.0464243926107883,-0.0452026948332786,#
-0.5742774605751038,-10.82034397125244,6.642475128173828,-0.3396310806274414,0.178367406129837,-0.2260134816169738,#
-1.0695916414260864,-8.523234367370605,5.469992637634277,1.0628741979599,0.1197260618209838,-0.2944283783435821,#
-1.0049854516983032,-7.365108013153076,5.079962730407715,1.4904673099517822,-0.1808107793331146,-0.0952921733260154,#
-0.8398807048797607,-8.274380683898926,2.8187451362609863,1.1337324380874634,-0.2223483920097351,0.0830752253532409,#
-0.9954141974449158,-10.48534870147705,3.0149567127227783,0.0146603342145681,-0.0940704718232154,0.1014006435871124,#
-0.9954141974449158,-10.48534870147705,3.0149567127227783,-0.6096255779266357,-0.0537545569241046,-0.0329857505857944,#
-1.2299107313156128,-10.114461898803713,4.883750915527344,-0.5619794726371765,0.0708582773804664,-0.0757450610399246,#
-1.5074783563613892,-8.417949676513672,5.86720085144043,0.0965138673782348,0.2333436459302902,-0.1368297785520553,#
-1.284945726394653,-8.688338279724121,5.386244297027588,0.3432961404323578,0.0488677769899368,-0.0378725305199623,#
-1.0911270380020142,-8.652446746826172,3.407379388809204,0.3286358118057251,-0.1160609796643257,0.0158820282667875,#
-1.0911270380020142,-8.652446746826172,3.407379388809204,0.1575985848903656,-0.2028012871742248,0.0427593067288398,#
-1.2323036193847656,-8.685946464538574,2.706282377243042,0.0952921733260154,-0.1404948681592941,0.0635281130671501,#
-1.4380863904953003,-8.798408508300781,4.508078098297119,-0.1661504507064819,0.0635281130671501,0.0525328628718853,#
-1.3375877141952517,-8.315058708190918,5.297709465026856,-0.1014006435871124,0.1722589135169983,-0.1209477484226226,#
-1.179661512374878,-7.929814338684082,4.838287353515625,0.0134386392310261,0.1356080919504165,-0.1637070626020431,#
-1.179661512374878,-7.929814338684082,4.838287353515625,0.0244338884949684,0.0183254163712263,-0.1062874197959899,#
-1.2921242713928225,-8.250452041625977,4.465007305145264,0.0305423624813556,-0.0085518611595034,-0.0965138673782348,#
-1.1270195245742798,-8.214560508728027,4.01037073135376,-0.031764056533575,0.0476460866630077,-0.0952921733260154,#
-0.9882357716560364,-8.922836303710938,4.776073932647705,-0.129499614238739,0.1075091138482093,-0.1343863904476165,#
-0.8327022790908813,-8.798408508300781,5.900700569152832,-0.1624853760004043,0.1417165547609329,-0.1747023165225982,#
-1.0408778190612793,-8.216952323913574,5.589633941650391,-0.0048867780715227,0.2345653474330902,-0.3127537965774536,#
-1.0408778190612793,-8.216952323913574,5.589633941650391,0.1808107793331146,0.2455605864524841,-0.2883199155330658,right
-0.9882357716560364,-8.207381248474121,4.575077056884766,0.1771456897258758,0.2296785563230514,-0.2394521236419677,right
-0.8039883971214294,-9.028119087219238,4.153940200805664,-0.0293206684291362,0.310310423374176,-0.2174616158008575,right
-0.6149553656578064,-9.415757179260254,6.041877269744873,-0.365286648273468,0.3347443044185638,-0.2748812437057495,right
-0.2321037948131561,-8.793622970581055,7.728816509246826,-0.3579564988613128,0.4556920528411865,-0.3640649616718292,right
-0.2321037948131561,-8.793622970581055,7.728816509246826,0.0476460866630077,0.5595360994338989,-0.4862344264984131,right
0.7441678047180176,-7.2813591957092285,7.551748275756836,0.178367406129837,0.53143709897995,-0.4837909936904907,right
1.4189438819885254,-6.317051887512207,6.709475040435791,0.2846547961235046,0.4825693070888519,-0.4691306948661804,right
2.3162522315979004,-6.230910301208496,7.898707389831543,-0.2296785563230514,0.7061393857002258,-0.3970507085323334,right
2.522034883499145,-7.776673316955566,9.628718376159668,-0.6120689511299133,0.919935941696167,-0.4618005454540252,right
2.7182462215423584,-8.240880966186523,9.791430473327637,-0.7611156702041626,1.4599249362945557,-0.7366817593574524,right
2.7182462215423584,-8.240880966186523,9.791430473327637,-0.0659715011715889,1.8337633609771729,-0.9553651213645936,right
3.0963122844696045,-7.252645492553711,7.877171993255615,0.5045598149299622,1.9143953323364256,-1.0946382284164429,right
3.6299118995666495,-6.238089084625244,6.984649658203125,1.0836429595947266,2.2369225025177,-1.40617036819458,right
4.29033088684082,-7.23589563369751,7.764709949493408,0.8747332096099854,2.779355049133301,-1.6211885213851929,right
4.840680122375488,-9.370293617248535,7.793423175811768,-0.1417165547609329,2.97604775428772,-1.6724997758865356,right
4.840680122375488,-9.370293617248535,7.793423175811768,-0.7415685653686523,3.3401126861572266,-1.7177023887634275,right
5.539384365081787,-10.583455085754396,7.721638679504394,-0.4104893505573272,3.4610605239868164,-1.7250326871871948,right
6.240481376647949,-8.805586814880371,7.195217609405518,0.8209787011146545,3.5099282264709477,-1.7323628664016724,right
6.601797103881836,-8.374878883361816,4.955535888671875,1.4281609058380127,3.658974885940552,-1.8691924810409544,right
7.405786037445068,-9.609575271606444,4.433900356292725,1.2827792167663574,3.740828514099121,-1.926612138748169,right
7.405786037445068,-9.609575271606444,4.433900356292725,0.5021164417266846,4.279595851898193,-1.9901403188705444,right
7.037291049957275,-11.265408515930176,3.964907169342041,0.6707102656364441,5.201974868774414,-2.273573398590088,right
4.60857629776001,-11.152946472167969,1.447657585144043,1.077534556388855,5.555045127868652,-2.4751532077789307,right
2.3473589420318604,-11.84447193145752,-0.3469592928886413,1.7482447624206543,5.446313858032227,-2.81234073638916,right
2.6775684356689453,-13.406984329223633,-1.4189438819885254,1.5210096836090088,4.91854190826416,-2.780576705932617,right
2.9216365814208984,-14.392828941345217,-1.4763716459274292,0.2076880484819412,3.8752150535583496,-2.305337429046631,right
2.9216365814208984,-14.392828941345217,-1.4763716459274292,-0.7159129977226257,3.0505709648132324,-1.770235300064087,right
1.801795244216919,-13.73480224609375,-2.0123636722564697,-0.8209787011146545,2.880755424499512,-1.571099042892456,right
-0.2727817595005035,-13.914262771606444,-9.858428955078123,-0.5192201733589172,2.797680377960205,-1.3463072776794434,right
-3.0269205570220947,-14.818751335144045,-9.89432144165039,0.0806318372488021,2.635195016860962,-1.2302463054656982,right
-4.613362312316895,-14.093725204467772,-3.005385160446167,-0.2211267054080963,2.647412061691284,-1.1398409605026243,right
-4.613362312316895,-14.093725204467772,-3.005385160446167,-0.8612945675849915,2.309002637863159,-0.9944592714309692,right
-3.517449140548706,-12.31107234954834,-0.1938186287879943,-0.9419264793395996,1.6859383583068848,-0.73912513256073,#
-2.414358139038086,-12.07657527923584,-0.3637090623378753,-0.1160609796643257,0.2467822879552841,0.1979145109653473,#
-2.9790639877319336,-10.956734657287598,-2.7900311946868896,-0.2125748395919799,-0.2846547961235046,0.6560499668121338,#
-3.9553356170654297,-11.703295707702637,-4.201796531677246,-0.1734806150197982,-0.0842969194054603,0.6792621612548828,#
-3.9553356170654297,-11.703295707702637,-4.201796531677246,0.175924003124237,-0.5167768001556396,0.5424323678016663,#
-2.2779672145843506,-11.076375007629396,1.935793399810791,-0.3323009014129638,-0.4288147687911987,0.790436327457428,#
-0.2488535493612289,-9.72921657562256,6.135197162628174,-0.2651077210903168,-0.2028012871742248,0.8429691791534424,#
-1.277767300605774,-8.568697929382324,5.350350856781006,0.5913001298904419,0.0818535313010215,0.7024743556976318,#
-2.9838497638702397,-7.740781307220459,3.428915023803711,0.624285876750946,0.0720799788832664,0.6230642199516296,#
-2.792424201965332,-7.688138484954834,3.2853453159332275,-0.1062874197959899,0.0879620015621185,0.6132906079292297,#
-2.792424201965332,-7.688138484954834,3.2853453159332275,-0.8075400590896606,-0.1563768982887268,0.6035171151161194,#
-1.6271194219589231,-8.549554824829102,3.747160196304321,-1.0030112266540527,-0.2052446752786636,0.6132906079292297,#
-1.5361920595169067,-9.253045082092283,4.8813581466674805,-1.188708782196045,-0.1160609796643257,0.4776825606822967,#
-1.7850456237792969,-8.226524353027344,4.835894107818604,-0.6462763547897339,0.0928487852215766,0.123391143977642,#
-1.6079767942428589,-7.130610942840576,2.321038007736206,-0.3689517080783844,0.0965138673782348,0.0965138673782348,#
-1.6079767942428589,-7.130610942840576,2.321038007736206,-0.2968717515468597,0.2137965410947799,0.1343863904476165,#
-1.4811571836471558,-8.23130989074707,2.840280532836914,-0.4508052766323089,0.1722589135169983,0.1637070626020431,#
-1.4093725681304932,-9.198010444641112,4.826323509216309,-1.087308049201965,0.2553341388702392,0.1392731666564941,#
-1.5553346872329712,-9.686145782470703,4.713860511779785,-0.9797989726066588,0.2150182276964187,-0.0134386392310261,#
-1.7443678379058838,-9.020941734313965,3.2518460750579834,-0.6230642199516296,0.0513111688196659,-0.0268772784620523,#
-1.66301167011261,-8.23130989074707,1.7156537771224976,-0.0378725305199623,-0.2345653474330902,-0.0171037223190069,#
-1.66301167011261,-8.23130989074707,1.7156537771224976,0.0158820282667875,-0.2883199155330658,-0.0061084721237421,#
-1.368694543838501,-8.839086532592773,2.1918253898620605,-0.1270562261343002,-0.2467822879552841,-0.0171037223190069,#
-1.294516921043396,-10.219745635986328,3.902693748474121,-0.4349232316017151,-0.1148392781615257,-0.100178949534893,#
-1.581655740737915,-9.667003631591797,4.450649738311768,-0.3555130958557129,-0.0146603342145681,-0.1514901220798492,#
-1.868794322013855,-9.193224906921388,3.5748770236968994,0.1893626451492309,0.0659715011715889,-0.1918060332536697,#
-1.868794322013855,-9.193224906921388,3.5748770236968994,0.5192201733589172,-0.1258345395326614,-0.0965138673782348,#
-1.7922240495681765,-8.999405860900879,2.3784656524658203,0.5045598149299622,-0.1600419729948043,-0.0574196390807628,#
-1.7515461444854736,-9.846465110778809,2.4358932971954346,0.129499614238739,-0.1404948681592941,0.0415376126766204,#
-1.5553346872329712,-10.700701713562012,3.728017807006836,-0.1734806150197982,-0.0684148892760276,-0.0549762547016143,#
-1.7682960033416748,-8.865407943725586,4.455435752868652,-0.0561979450285434,0.0439810007810592,-0.130721315741539,#
-1.7682960033416748,-8.865407943725586,4.455435752868652,0.4618005454540252,0.152711808681488,-0.1930277347564697,#
-2.4885356426239014,-8.61894702911377,3.823730707168579,0.4581354260444641,0.0977355539798736,-0.1673721522092819,#
-1.947757601737976,-9.616753578186035,2.675175428390503,0.3958290219306946,-0.1771456897258758,-0.0647498071193695,#
-1.8161523342132568,-10.461421012878418,1.277767300605774,0.1649287492036819,-0.21135313808918,0.0598630309104919,#
-1.8161523342132568,-10.463812828063965,2.553141593933105,0.1478250324726104,-0.2431172132492065,0.0549762547016143,#
-1.8999011516571045,-9.57607650756836,3.335594892501831,0.1905843466520309,-0.1136175915598869,-0.0610847249627113,#
-1.8999011516571045,-9.57607650756836,3.335594892501831,0.7721109390258789,0.0977355539798736,-0.1417165547609329,#
-1.921436548233032,-8.456235885620117,3.842873096466065,0.9089407324790956,0.1197260618209838,-0.1099525094032287,#
-1.7922240495681765,-9.212367057800291,3.5748770236968994,0.5998519659042358,0.0855186134576797,0.0268772784620523,#
-1.88075852394104,-9.51386260986328,2.9479575157165527,0.1881409436464309,0.1185043603181839,0.0427593067288398,#
-1.969292998313904,-9.755537986755373,3.170490026473999,0.0146603342145681,0.1417165547609329,0.0378725305199623,#
-1.969292998313904,-9.755537986755373,3.170490026473999,-0.1575985848903656,0.2064663618803024,-0.0085518611595034,#
-1.921436548233032,-9.530611991882324,4.060619831085205,-0.1246128380298614,0.2480039745569229,-0.0757450610399246,#
-2.210968255996704,-8.255237579345703,4.328616142272949,-0.0232121963053941,0.2406738102436065,-0.1466033309698104,#
-2.282752752304077,-8.965906143188477,4.086941242218018,-0.031764056533575,0.1710372269153595,-0.0598630309104919,#
-2.139183282852173,-9.846465110778809,3.0077781677246094,-0.1331647038459777,0.1392731666564941,0.0219905003905296,#
-2.139183282852173,-9.846465110778809,3.0077781677246094,-0.3151971697807312,0.1111741960048675,0.0610847249627113,#
-2.0745770931243896,-10.202995300292969,3.1106693744659424,-0.256555825471878,0.1588202863931656,0.0390942245721817,#
-1.9740787744522093,-10.088139533996582,3.919443368911743,-0.0904053896665573,0.2382304221391677,0.0097735561430454,#
-2.3856441974639893,-8.662017822265625,4.517649173736572,0.2040229737758636,0.3603998720645904,-0.0354291386902332,#
-2.359323024749756,-9.121439933776855,4.012763977050781,0.2296785563230514,0.3432961404323578,-0.0256555844098329,#
-2.021935224533081,-9.671788215637209,2.830709218978882,0.1209477484226226,0.175924003124237,0.1038440242409706,#
-2.021935224533081,-9.671788215637209,2.830709218978882,-0.2675510942935943,0.1319430023431778,0.2150182276964187,#
-2.3258235454559326,-10.619346618652344,2.359323024749756,-0.3665083348751068,0.0855186134576797,0.1966928243637085,#
-2.155933380126953,-10.535597801208496,2.9479575157165527,-0.2638860046863556,0.1417165547609329,0.1319430023431778,#
-2.3880369663238525,-9.674181938171388,3.893122434616089,0.1380514800548553,0.2932066619396209,0.1221694499254226,#
-3.168097257614136,-9.698110580444336,3.5772697925567627,0.3127537965774536,0.3066453039646148,0.1319430023431778,#
-3.168097257614136,-9.698110580444336,3.5772697925567627,0.3054236173629761,0.3591781854629516,0.2431172132492065,#
-3.804587841033936,-10.22931671142578,4.180261135101318,0.235787034034729,0.3970507085323334,0.2846547961235046,#
-3.4959137439727783,-10.382457733154297,4.488935470581055,0.0952921733260154,0.4056025743484497,0.3249707520008087,#
-4.053441524505615,-10.652846336364746,4.232903003692627,0.2052446752786636,0.4508052766323089,0.3994940817356109,counterclockwise
-5.266602516174316,-11.279767036437988,4.161118507385254,0.2504473626613617,0.4960079491138458,0.3762818872928619,counterclockwise
-7.192824840545654,-10.928021430969238,4.773681163787842,0.3665083348751068,0.7207997441291809,0.2797680497169494,counterclockwise
-7.192824840545654,-10.928021430969238,4.773681163787842,0.5937435030937195,0.905275583267212,0.3066453039646148,counterclockwise
-9.111868858337402,-11.676974296569824,6.503692150115967,0.4618005454540252,1.0408836603164673,0.4618005454540252,counterclockwise
-8.047062873840332,-14.342578887939451,6.69990348815918,-0.1392731666564941,1.1520578861236572,0.5302154421806335,counterclockwise
-8.063812255859375,-16.922040939331055,5.118247985839844,-0.42270627617836,1.1703832149505615,0.7195780277252197,counterclockwise
-7.695317268371582,-18.04188346862793,1.588834285736084,-0.1185043603181839,1.227802872657776,0.7794410586357117,counterclockwise
-7.695317268371582,-18.04188346862793,1.588834285736084,0.5815265774726868,1.3023263216018677,1.1606097221374512,counterclockwise
-5.900700569152832,-17.22114372253418,1.2873386144638062,0.5705313086509705,1.3328686952590942,1.58942449092865,counterclockwise
-5.237888813018799,-18.2644157409668,2.12961220741272,-0.0720799788832664,1.6199668645858765,2.372530698776245,counterclockwise
-4.869394302368164,-18.01077651977539,1.1533405780792236,-0.5045598149299622,1.6321837902069092,2.757364511489868,counterclockwise
-4.201796531677246,-17.2666072845459,-0.9308080077171326,-0.3555130958557129,1.4733635187149048,2.901524305343628,counterclockwise
-4.201796531677246,-17.2666072845459,-0.9308080077171326,0.5094466209411621,1.0372185707092283,3.1629669666290283,counterclockwise
-2.8929224014282227,-15.460026741027832,-2.060220241546631,0.8270871639251709,0.6939224600791931,3.4793858528137207,counterclockwise
-1.6175479888916016,-12.897314071655272,-1.4333008527755735,0.9529216885566713,0.5558710098266602,3.640649557113648,counterclockwise
-0.662811815738678,-12.44267749786377,-0.8590233325958252,0.6536065340042114,0.3860554695129394,3.862997770309448,counterclockwise
1.2490534782409668,-11.313264846801758,0.0311066936701536,0.5302154421806335,0.3750602006912231,3.916752576828003,counterclockwise
2.033899307250977,-8.678767204284668,-0.5718846321105957,0.5961868762969971,0.1624853760004043,3.980280637741089,counterclockwise
2.033899307250977,-8.678767204284668,-0.5718846321105957,0.8881718516349792,-0.1612636744976043,3.9179742336273193,counterclockwise
2.194218397140503,-6.714260101318359,-1.6319050788879397,0.919935941696167,-0.3445178270339966,3.886210203170776,counterclockwise
2.9790639877319336,-5.228317260742188,-2.167897224426269,0.6927007436752319,-0.6963658928871155,4.004714488983154,counterclockwise
3.7950167655944815,-4.328616142272949,-1.2610174417495728,0.3921639025211334,-1.0237799882888794,4.13054895401001,counterclockwise
4.3381876945495605,-2.617748022079468,-0.7800601720809937,0.2333436459302902,-1.147171139717102,4.1525397300720215,counterclockwise
4.3381876945495605,-2.617748022079468,-0.7800601720809937,0.0195471122860908,-1.4745851755142212,4.1268839836120605,counterclockwise
5.015356063842773,-1.4835500717163086,-1.919043779373169,-0.130721315741539,-1.6969337463378906,4.13054895401001,counterclockwise
6.963113307952881,-0.2632104754447937,-1.3328022956848145,-0.860072910785675,-2.2405877113342285,4.123219013214111,counterclockwise
8.248059272766113,1.0336993932724,1.5553346872329712,-1.5222313404083252,-2.7952370643615723,3.9362998008728023,counterclockwise
7.188039302825928,3.735196113586426,1.0169496536254885,-1.1129636764526367,-2.977269411087036,3.677300214767456,counterclockwise
6.872186660766602,3.706482172012329,-1.3591231107711792,0.0195471122860908,-3.1983959674835205,3.18862247467041,counterclockwise
6.872186660766602,3.706482172012329,-1.3591231107711792,-0.31641885638237,-3.4060842990875244,3.020028591156006,counterclockwise
8.322237014770508,3.651447057723999,3.184847116470337,-1.2229161262512207,-3.506263017654419,2.9845995903015137,counterclockwise
10.628917694091797,4.969892501831055,5.8097734451293945,-2.774468183517456,-3.623545646667481,2.400629758834839,counterclockwise
9.193224906921388,7.331608772277832,4.924428939819336,-2.2369225025177,-3.876436710357666,1.8704142570495603,counterclockwise
8.748159408569336,9.521041870117188,10.487741470336914,-1.0592091083526611,-4.04869556427002,0.9932376146316528,counterclockwise
8.748159408569336,9.521041870117188,10.487741470336914,-1.9815884828567505,-4.064577579498291,0.4092676639556885,counterclockwise
11.033305168151855,9.21715259552002,12.827921867370604,-2.5093605518341064,-4.064577579498291,-0.0207688063383102,counterclockwise
10.549955368041992,12.000005722045898,21.832115173339844,-1.1264023780822754,-3.8520028591156006,-1.4171655178070068,counterclockwise
5.027320384979248,15.086747169494627,25.770700454711918,0.333522617816925,-3.0713398456573486,-2.8514349460601807,counterclockwise
1.919043779373169,9.686145782470703,29.876781463623047,-0.1026223376393318,-2.728043794631958,-3.5343620777130127,counterclockwise
1.919043779373169,9.686145782470703,29.876781463623047,-2.649855375289917,-2.2466959953308105,-5.215413570404053,counterclockwise
1.1724830865859983,1.2729815244674685,32.812774658203125,-3.08722186088562,-1.8056644201278689,-6.274622440338135,counterclockwise
-0.117248311638832,-4.261617183685303,33.89911651611328,-1.69082510471344,-0.7476770281791687,-7.640477180480957,counterclockwise
-2.84506630897522,-8.367700576782227,31.781469345092773,0.522885262966156,0.7061393857002258,-7.581836223602295,counterclockwise
-6.530013084411621,-10.985447883605955,26.758935928344727,0.8771765828132629,1.327981948852539,-7.390029907226562,counterclockwise
-7.57806921005249,-14.124832153320312,22.837099075317383,0.5827482342720032,2.309002637863159,-6.766965866088867,counterclockwise
-7.57806921005249,-14.124832153320312,22.837099075317383,1.0946382284164429,3.195952653884888,-5.661332130432129,counterclockwise
-9.17886734008789,-18.88654899597168,19.305294036865234,1.9974703788757324,3.51237154006958,-5.115234851837158,counterclockwise
-6.900900363922119,-19.628324508666992,16.649261474609375,3.5013763904571533,3.738384962081909,-4.268600463867188,counterclockwise
-5.807380676269531,-19.532609939575195,11.693723678588867,3.3608815670013428,4.087789535522461,-3.246042251586914,counterclockwise
-4.706681728363037,-21.71725845336914,5.340780735015869,2.5582282543182373,4.239279747009277,-2.817227363586426,counterclockwise
-4.706681728363037,-21.71725845336914,5.340780735015869,0.758672297000885,4.449411392211914,-1.81177282333374,counterclockwise
-4.106083393096924,-19.913068771362305,5.924628734588623,0.0561979450285434,4.539816379547119,-1.2546802759170532,counterclockwise
-2.641676187515259,-13.746766090393066,5.37906551361084,0.2504473626613617,4.6473259925842285,0.0488677769899368,counterclockwise
-2.9383859634399414,-10.698309898376465,3.6370904445648193,1.3377554416656494,4.284482479095459,1.225359559059143,counterclockwise
-2.124826431274414,-8.48734188079834,1.6701902151107788,1.5857594013214111,3.968063592910767,1.5161229372024536,counterclockwise
-2.124826431274414,-8.48734188079834,1.6701902151107788,1.3169866800308228,3.4378480911254883,2.0121307373046875,counterclockwise
-1.380658507347107,-6.4079790115356445,0.0885344371199607,0.712247908115387,3.0505709648132324,2.158734083175659,counterclockwise
-1.730010747909546,-2.8283162117004395,1.7491532564163208,0.4752391576766968,2.90396785736084,2.058555126190185,counterclockwise
-1.797009825706482,0.7154539823532104,2.895315170288086,-0.0097735561430454,2.641303300857544,2.076880693435669,counterclockwise
-2.400001049041748,3.208775281906128,2.67278265953064,0.0097735561430454,2.436058759689331,2.0084657669067383,counterclockwise
-3.579662799835205,2.2995026111602783,0.6317051649093628,0.3762818872928619,2.010909080505371,1.9095085859298704,counterclockwise
-3.579662799835205,2.2995026111602783,0.6317051649093628,0.4312581717967987,1.58942449092865,1.6285187005996704,counterclockwise
-4.500899314880371,1.3304094076156616,0.1938186287879943,0.1136175915598869,1.424495816230774,1.4733635187149048,counterclockwise
-4.101297855377197,1.3232309818267822,1.4380863904953003,-0.4239279925823211,1.022558331489563,1.2106993198394775,counterclockwise
-4.1659040451049805,2.744567632675171,3.369094133377075,-0.7000309228897095,0.7061393857002258,1.0469921827316284,counterclockwise
-5.245067596435547,2.5842485427856445,3.036492109298706,-0.6536065340042114,0.5937435030937195,0.9907942414283752,counterclockwise
-5.245067596435547,2.5842485427856445,3.036492109298706,-0.333522617816925,0.3823903799057007,0.8576295375823975,counterclockwise
-6.606583118438721,0.861416220664978,2.6703903675079346,-0.2846547961235046,0.3017585575580597,0.8112051486968994,counterclockwise
-7.247859954833984,1.3543376922607422,3.314059257507324,-0.4337015450000763,0.031764056533575,0.84541255235672,#
-6.477370738983154,2.6464619636535645,4.29750919342041,-0.7953230738639832,-0.1050657257437706,0.8698464632034302,#
-6.704688549041748,2.366501569747925,4.675575256347656,-0.7794410586357117,-0.1392731666564941,0.7684457898139954,#
-7.463213920593262,2.400001049041748,4.35254430770874,-0.4178195297718048,-0.0855186134576797,0.5509842038154602,#
-7.463213920593262,2.400001049041748,4.35254430770874,-0.0122169442474842,0.0171037223190069,0.4703523814678192,#
-7.93699312210083,2.4646072387695312,4.448256969451904,0.0183254163712263,-0.0415376126766204,0.4324798583984375,#
-7.783851623535156,2.988635540008545,5.077569961547852,-0.4691306948661804,-0.175924003124237,0.5253286361694336,#
-7.542177200317383,2.912065029144287,4.563112735748291,-0.7085827589035034,-0.1905843466520309,0.4984513521194458,#
-8.47059154510498,1.7371891736984253,4.972285747528076,-0.546097457408905,-0.1673721522092819,0.3384093642234802,#
-8.47059154510498,1.7371891736984253,4.972285747528076,0.1343863904476165,-0.1698155403137207,0.2089097648859024,#
-9.308080673217772,2.045863389968872,5.6685967445373535,0.3384093642234802,-0.1624853760004043,0.2418954968452453,#
-8.566305160522461,2.0650060176849365,5.32403039932251,0.2748812437057495,-0.1930277347564697,0.411711037158966,#
-8.489734649658203,2.4023938179016118,5.115854740142822,0.0097735561430454,-0.2247917801141739,0.3750602006912231,#
-8.798408508300781,2.4335007667541504,4.603790760040283,-0.0794101431965828,-0.2272351831197738,0.4178195297718048,#
-8.798408508300781,2.4335007667541504,4.603790760040283,0.0464243926107883,-0.2235700935125351,0.3494046330451965,#
-8.683552742004395,2.550748825073242,5.2115678787231445,0.3359659910202026,-0.1319430023431778,0.1331647038459777,#
-8.532805442810059,3.270988702774048,6.020341873168945,0.416597843170166,-0.0794101431965828,0.0952921733260154,#
-8.49452018737793,2.636890411376953,5.917449951171875,0.0158820282667875,-0.0305423624813556,0.0232121963053941,#
-8.676375389099121,1.6869399547576904,4.4961137771606445,-0.2211267054080963,-0.0476460866630077,-0.0415376126766204,#
-8.841480255126953,0.6005984544754028,3.483949899673462,-0.3408527672290802,-0.0733016654849052,-0.1624853760004043,#
-8.841480255126953,0.6005984544754028,3.483949899673462,-0.2370087206363678,-0.0904053896665573,-0.178367406129837,#
-8.343771934509277,0.6340980529785156,4.548755645751953,-0.2076880484819412,-0.0928487852215766,-0.1930277347564697,#
-8.207381248474121,1.856830358505249,5.079962730407715,0.0671931952238082,-0.0232121963053941,-0.0415376126766204,#
-8.523234367370605,1.7204395532608032,4.926821708679199,0.1343863904476165,0.0488677769899368,0.1319430023431778,#
-8.370094299316406,1.3280165195465088,4.508078098297119,0.1087308079004287,0.0171037223190069,0.1514901220798492,#
-8.370094299316406,1.3280165195465088,4.508078098297119,0.1588202863931656,-0.0109952501952648,0.1698155403137207,#
-8.255237579345703,1.56251323223114,4.319044589996338,0.1942494213581085,-0.0280989725142717,0.1221694499254226,#
-8.236095428466797,2.5842485427856445,4.8813581466674805,0.2052446752786636,-0.0452026948332786,-0.0061084721237421,#
-8.310273170471191,3.184847116470337,5.828916072845459,0.069636583328247,0.0048867780715227,-0.0158820282667875,#
-8.166703224182129,2.3258235454559326,5.443671703338623,-0.0525328628718853,0.0280989725142717,-0.0207688063383102,#
-8.449056625366211,2.0961124897003174,3.969692707061768,-0.128277912735939,-0.0134386392310261,-0.0635281130671501,#
-8.449056625366211,2.0961124897003174,3.969692707061768,0.0256555844098329,-0.0354291386902332,-0.0794101431965828,#
-8.288737297058105,1.380658507347107,4.070191383361816,0.0439810007810592,-0.0598630309104919,-0.0720799788832664,#
-8.209774017333984,1.8089739084243772,5.125426292419434,-0.0122169442474842,-0.0500894747674465,-0.2040229737758636,#
-8.255237579345703,1.978864312171936,5.410171985626221,-0.0586413368582725,-0.0256555844098329,-0.1942494213581085,#
-8.451449394226074,2.342573404312134,5.343173027038574,0.0280989725142717,-0.0476460866630077,-0.1563768982887268,#
-8.451449394226074,2.342573404312134,5.343173027038574,0.0195471122860908,-0.0549762547016143,-0.1673721522092819,#
-8.554340362548828,1.4883356094360352,4.642076015472412,-0.0537545569241046,-0.0305423624813556,-0.1612636744976043,#
-8.681159973144531,0.784845769405365,4.043870449066162,-0.1612636744976043,0.0048867780715227,-0.1392731666564941,#
-8.539983749389648,1.0504491329193115,5.4795637130737305,-0.1918060332536697,0.0659715011715889,-0.1075091138482093,#
-8.489734649658203,1.442872166633606,6.209374904632568,-0.0904053896665573,0.1380514800548553,-0.130721315741539,#
-8.489734649658203,1.442872166633606,6.209374904632568,0.0855186134576797,0.1722589135169983,-0.1014006435871124,#
-8.63330364227295,1.430907964706421,5.642275810241699,0.007330167107284,0.1258345395326614,-0.1026223376393318,#
-8.70508861541748,1.4715858697891235,4.182653903961182,-0.128277912735939,0.1258345395326614,-0.1747023165225982,#
-8.721837997436523,1.3232309818267822,2.9288151264190674,-0.3139754831790924,-0.0464243926107883,-0.1771456897258758,#
-8.396414756774902,1.356730580329895,4.668396949768066,-0.4007157981395721,-0.0537545569241046,-0.1685938388109207,#
-8.159524917602539,1.239482045173645,6.10887622833252,-0.5864133238792419,0.0378725305199623,-0.1246128380298614,#
-8.159524917602539,1.239482045173645,6.10887622833252,-0.0439810007810592,0.1869192570447921,-0.1246128380298614,#
-8.475377082824707,1.2083754539489746,5.769095420837402,0.1612636744976043,0.1270562261343002,0.0280989725142717,#
-8.769694328308105,1.0169496536254885,4.704289436340332,0.4031591713428497,0.0684148892760276,0.0733016654849052,#
-8.640481948852539,0.9906285405158995,3.5605196952819824,0.3762818872928619,0.003665083553642,0.1502684205770492,#
-8.391629219055176,1.0959126949310305,4.252045631408691,0.2504473626613617,-0.0085518611595034,0.1356080919504165,#
-8.391629219055176,1.0959126949310305,4.252045631408691,-0.1734806150197982,0.0488677769899368,0.0928487852215766,#
-8.405985832214355,1.8472589254379272,5.017749309539795,-0.2687727808952331,0.1050657257437706,0.0561979450285434,#
-8.571090698242188,1.5649060010910034,5.395814895629883,-0.2761029601097107,0.1575985848903656,0.1453816443681717,#
-8.465806007385254,1.146162033081055,4.78803825378418,-0.1160609796643257,0.0745233595371246,0.1368297785520553,#
-8.575876235961914,1.5864413976669312,3.7878382205963135,0.0122169442474842,0.0305423624813556,0.1123958900570869,#
-8.575876235961914,1.5864413976669312,3.7878382205963135,0.0989572554826736,-0.0268772784620523,0.129499614238739,#
-8.417949676513672,1.5553346872329712,4.027120590209961,0.0549762547016143,-0.0488677769899368,0.0818535313010215,#
-8.547162055969238,1.8975083827972408,4.709074974060059,0.0048867780715227,-0.0171037223190069,0.0586413368582725,#
-8.525627136230469,2.0817556381225586,4.874179840087891,-0.003665083553642,0.0366508327424526,0.0940704718232154,#
-8.123632431030273,1.5553346872329712,5.113461971282959,-0.0598630309104919,0.0329857505857944,0.0965138673782348,#
-8.14516830444336,1.459621787071228,4.902893543243408,-0.1502684205770492,0.0122169442474842,0.0525328628718853,#
-8.14516830444336,1.459621787071228,4.902893543243408,-0.0219905003905296,-0.0146603342145681,-0.0171037223190069,#
-8.322237014770508,1.7850456237792969,4.666004180908203,0.0891837030649185,-0.003665083553642,-0.0452026948332786,#
-8.164310455322266,2.117647886276245,4.790431022644043,0.1661504507064819,0.0207688063383102,-0.1026223376393318,#
-8.149953842163086,2.25403904914856,5.084747791290283,0.0500894747674465,0.0561979450285434,-0.1221694499254226,#
-8.214560508728027,1.902293920516968,4.955535888671875,-0.1148392781615257,0.0500894747674465,-0.0989572554826736,#
-8.214560508728027,1.902293920516968,4.955535888671875,-0.3616215586662292,0.0415376126766204,-0.1392731666564941,#
-8.260024070739746,1.423729419708252,4.706681728363037,-0.3481829464435577,0.0134386392310261,-0.1319430023431778,#
-8.427520751953125,0.973878800868988,4.254438400268555,-0.0781884491443634,-0.0305423624813556,-0.1490467190742492,#
-8.968299865722656,1.8065810203552248,4.587040901184082,0.1368297785520553,0.0207688063383102,-0.2028012871742248,#
-9.080761909484863,2.1607186794281006,4.9363932609558105,0.1429382413625717,0.0623064190149307,-0.1710372269153595,#
-9.008977890014648,1.703689694404602,4.955535888671875,-0.0024433890357613,0.0965138673782348,-0.1111741960048675,#
-9.008977890014648,1.703689694404602,4.955535888671875,-0.1368297785520553,0.123391143977642,-0.1539334952831268,#
-9.82971477508545,1.7132610082626345,4.661218643188477,-0.1087308079004287,0.1172826737165451,-0.175924003124237,#
-11.404192924499512,1.9740787744522093,4.761716842651367,-0.0061084721237421,0.1502684205770492,-0.2382304221391677,#
-12.54317569732666,2.337787628173828,5.158926010131836,0.0122169442474842,0.1539334952831268,-0.3042019307613373,#
-11.621939659118652,1.782652735710144,5.525027275085449,-0.1722589135169983,0.2028012871742248,-0.5106682777404785,#
-11.621939659118652,1.782652735710144,5.525027275085449,-0.5864133238792419,0.3518480062484741,-0.758672297000885,#
-12.112468719482422,0.8350951075553894,5.259423732757568,-0.8906152844429016,0.4385882914066314,-0.8845068216323853,#
-12.117253303527832,-2.0410776138305664,4.35254430770874,-1.4159438610076904,0.6694886088371277,-1.0702043771743774,counterclockwise
-10.944771766662598,-4.902893543243408,2.531606435775757,-1.5454435348510742,0.785549521446228,-1.3084348440170288,counterclockwise
-9.999605178833008,-6.975078105926514,0.8877372145652771,-1.7555750608444214,0.786771297454834,-1.437934398651123,counterclockwise
-9.999605178833008,-6.975078105926514,0.8877372145652771,-3.1812922954559326,0.4898994863033294,-0.8527427315711975,counterclockwise
-8.465806007385254,-9.595218658447266,-0.8422735333442688,-4.429864406585693,0.3200839459896087,-0.2651077210903168,counterclockwise
-6.687938690185547,-14.837894439697266,-0.2584248483181,-5.074918746948242,-0.0842969194054603,0.5595360994338989,counterclockwise
-3.854837417602539,-12.20339584350586,-0.8638089299201965,-2.1281917095184326,-0.5900784730911255,1.3414205312728882,counterclockwise
-3.1824538707733154,-6.982256412506104,-3.704089403152466,-0.2724378705024719,-0.7012526392936707,1.900956630706787,counterclockwise
-0.4570291042327881,-5.735595226287842,-3.780659914016724,0.8576295375823975,-0.896723747253418,2.751255989074707,counterclockwise
-0.4570291042327881,-5.735595226287842,-3.780659914016724,-1.2155860662460327,-1.8093295097351076,3.586894989013672,counterclockwise
2.988635540008545,-7.408178806304932,-2.524427890777588,-2.514247179031372,-2.265021562576294,3.751823663711548,counterclockwise
5.733203411102295,-7.032505512237549,-1.4524433612823486,-3.544135808944702,-2.93328857421875,3.738384962081909,counterclockwise
7.501499176025391,-3.847658634185791,-0.4474578499794006,-2.499586820602417,-3.4525086879730225,3.70539927482605,counterclockwise
11.023734092712402,0.7704889178276062,1.9956141710281368,-1.9583762884140012,-3.771370887756348,3.6895172595977774,counterclockwise
11.023734092712402,0.7704889178276062,1.9956141710281368,-2.502030372619629,-4.313803195953369,3.663861989974976,counterclockwise
11.856435775756836,1.2825528383255005,3.194417953491211,-2.895415782928467,-4.693750381469727,3.665083408355713,counterclockwise
11.140981674194336,1.6654045581817627,8.188239097595215,-3.916752576828003,-4.955193042755127,3.332782745361328,counterclockwise
11.868400573730469,3.998406410217285,12.569498062133787,-4.227062702178955,-4.758500099182129,2.412846565246582,counterclockwise
9.712467193603516,6.226124286651611,14.940784454345703,-3.3547730445861816,-4.605788230895996,1.6859383583068848,counterclockwise
8.989834785461426,7.951349258422852,17.345571517944336,-2.381082773208618,-4.026705265045166,0.790436327457428,counterclockwise
8.989834785461426,7.951349258422852,17.345571517944336,-3.312013864517212,-3.750602006912232,0.2028012871742248,counterclockwise
9.363115310668944,6.807580471038818,17.144573211669922,-3.485494375228882,-3.746937036514282,-0.393385648727417,counterclockwise
8.650053977966309,5.5345988273620605,17.123037338256836,-3.773814201354981,-3.2093913555145264,-1.6553959846496582,counterclockwise
8.422735214233398,2.7014968395233154,20.499313354492188,-3.941186428070069,-2.8856422901153564,-2.2112669944763184,counterclockwise
6.467799663543701,0.3014956414699554,22.81317138671875,-3.635762929916382,-2.074437141418457,-3.225273370742798,counterclockwise
6.467799663543701,0.3014956414699554,22.81317138671875,-2.013352632522583,-1.2155860662460327,-4.082902908325195,counterclockwise
4.204189300537109,-0.3541377484798431,23.42573356628418,-1.4843589067459106,-1.0335536003112793,-4.448189735412598,counterclockwise
5.058426856994629,-2.6081764698028564,22.021146774291992,-1.525896430015564,-0.9236010909080504,-5.302154064178467,counterclockwise
3.943371772766113,-5.709274768829346,18.934404373168945,-2.3236629962921143,-0.5387672781944275,-6.048609733581543,counterclockwise
-1.8951154947280884,-10.585847854614258,25.94537734985352,-2.6107609272003174,-0.2125748395919799,-6.223311424255371,counterclockwise
-1.8951154947280884,-10.585847854614258,25.94537734985352,-2.0548901557922363,0.4960079491138458,-6.413896083831787,counterclockwise
-1.710868239402771,-10.078569412231444,27.314069747924805,-0.6181774139404297,0.9150491952896118,-6.426113128662109,counterclockwise
-1.7682960033416748,-9.506684303283691,23.50230407714844,1.6932685375213623,1.81177282333374,-5.09813117980957,counterclockwise
-4.570291519165039,-9.561718940734863,21.695724487304688,1.8960697650909424,2.3468751907348637,-4.6070098876953125,counterclockwise
-4.4721856117248535,-8.740981101989746,21.011375427246094,1.6627261638641355,2.539902687072754,-4.479953765869141,counterclockwise
-3.4193434715271,-9.875179290771484,18.080167770385746,1.408613681793213,2.98582124710083,-3.93752121925354,counterclockwise
-3.4193434715271,-9.875179290771484,18.080167770385746,2.265021562576294,3.478163957595825,-3.611328840255737,counterclockwise
-2.981456995010376,-11.710474014282228,14.928821563720703,2.6840627193450928,3.711507797241211,-3.513593435287476,counterclockwise
-2.289931058883667,-12.693923950195312,13.904691696166992,2.2149322032928467,4.087789535522461,-3.143419981002808,counterclockwise
-1.660618782043457,-14.266008377075195,13.557732582092283,0.4544703662395477,4.46040678024292,-2.3065593242645264,counterclockwise
-1.112662434577942,-13.933405876159668,12.059826850891112,-0.0830752253532409,4.603344917297363,-1.81177282333374,counterclockwise
-1.112662434577942,-13.933405876159668,12.059826850891112,0.1844758540391922,4.742617607116699,-0.9358179569244384,counterclockwise
-0.9092726111412048,-12.320643424987791,9.702895164489746,0.6927007436752319,4.742617607116699,-0.5668662190437317,counterclockwise
-2.007578134536743,-11.755936622619627,7.032505512237549,1.202147364616394,4.712075233459473,-0.0354291386902332,counterclockwise
-0.9284151792526244,-10.064212799072266,7.042076587677002,0.6707102656364441,4.581354141235352,0.445918470621109,counterclockwise
-0.4737788736820221,-8.441878318786621,6.671189785003662,0.2064663618803024,4.438416004180908,0.8087617754936218,counterclockwise
-0.4737788736820221,-8.441878318786621,6.671189785003662,-0.3274141252040863,4.089011669158936,1.446486234664917,counterclockwise
-0.3852444589138031,-6.10169792175293,5.8337016105651855,-0.3701734542846679,3.5820083618164062,1.886296272277832,counterclockwise
-0.3565305471420288,-4.4721856117248535,4.170689582824707,-0.310310423374176,3.371876716613769,2.090319395065308,counterclockwise
-0.3397807776927948,-3.589233875274658,3.208775281906128,-0.0232121963053941,3.0249156951904297,2.315110921859741,counterclockwise
0.2751745879650116,-1.6223337650299072,3.160918712615967,0.0781884491443634,2.8538784980773926,2.345653295516968,counterclockwise
0.3948157429695129,0.851844847202301,3.053241729736328,-0.0329857505857944,2.5472328662872314,2.4458322525024414,counterclockwise
0.3948157429695129,0.851844847202301,3.053241729736328,-0.4825693070888519,2.1575124263763428,2.586327314376831,counterclockwise
0.1411765366792678,2.8115665912628174,3.5772697925567627,-0.9223793148994446,1.92294716835022,2.670624256134033,counterclockwise
-0.4211367666721344,3.25663161277771,3.1082763671875,-1.3108781576156616,1.3401988744735718,2.6070961952209477,counterclockwise
-1.057627558708191,3.2997026443481445,2.4023938179016118,-0.6450546979904175,0.785549521446228,2.2210404872894287,counterclockwise
-1.9094725847244265,4.950750350952148,3.067598581314087,-0.1490467190742492,0.6474980711936951,2.032899618148804,counterclockwise
-1.9094725847244265,4.950750350952148,3.067598581314087,0.2101314514875412,0.5204418301582336,1.859418988227844,counterclockwise
-2.426322221755981,6.6831536293029785,4.579862117767334,0.0195471122860908,0.4898994863033294,1.8423151969909668,counterclockwise
-3.436093330383301,6.474977493286133,3.211168050765991,-0.2345653474330902,0.4178195297718048,1.5515520572662354,counterclockwise
-5.477170467376709,4.756931304931641,3.0173492431640625,0.0158820282667875,0.4239279925823211,1.0433270931243896,counterclockwise
-6.27876615524292,4.582255363464356,4.232903003692627,0.1575985848903656,0.3506263196468353,0.833195686340332,counterclockwise
-6.1256256103515625,4.232903003692627,5.879165172576904,0.3860554695129394,0.1453816443681717,0.53143709897995,counterclockwise
-6.1256256103515625,4.232903003692627,5.879165172576904,0.2089097648859024,-0.0549762547016143,0.3274141252040863,counterclockwise
-6.6352972984313965,4.524827480316162,5.142175674438477,0.0171037223190069,-0.175924003124237,0.1881409436464309,counterclockwise
-7.7455668449401855,4.163511276245117,3.445664882659912,-0.130721315741539,-0.2553341388702392,0.0415376126766204,#
-8.11406135559082,3.476771354675293,3.862015962600708,-0.4813476204872131,-0.3396310806274414,-0.0305423624813556,#
-6.941578388214111,2.691925525665283,6.063412666320801,-0.624285876750946,-0.3689517080783844,-0.1160609796643257,#
-6.941578388214111,2.691925525665283,6.063412666320801,-0.3750602006912231,-0.4031591713428497,-0.1930277347564697,#
-7.5804619789123535,2.9479575157165527,6.419942855834961,-0.0989572554826736,-0.3518480062484741,-0.1343863904476165,#
-8.688338279724121,2.849851608276367,5.769095420837402,0.5961868762969971,-0.21135313808918,-0.0378725305199623,#
-8.283952713012695,2.6608188152313232,5.840879917144775,0.6401678919792175,-0.2809897363185882,0.0207688063383102,#
-7.716853141784668,2.263610363006592,5.587240695953369,0.471574068069458,-0.2993151545524597,0.0342074446380138,#
-7.716853141784668,2.263610363006592,5.587240695953369,0.0904053896665573,-0.2773246467113495,0.0439810007810592,#
-7.829315185546875,2.1583259105682373,6.209374904632568,-0.0329857505857944,-0.2602209150791168,-0.0549762547016143,#
-7.58524751663208,2.6057839393615723,6.498906135559082,0.0500894747674465,-0.2687727808952331,-0.069636583328247,#
-7.444070816040039,2.995814085006714,6.391229152679443,0.4373666048049927,-0.2797680497169494,-0.0574196390807628,#
-7.501499176025391,2.825923442840576,5.623133182525635,0.4984513521194458,-0.2309002727270126,-0.0537545569241046,#
-7.278966426849365,3.0005996227264404,5.8959150314331055,0.4752391576766968,-0.1185043603181839,-0.0891837030649185,#
-7.278966426849365,3.0005996227264404,5.8959150314331055,0.2993151545524597,-0.0891837030649185,-0.0635281130671501,#
-6.891329765319824,2.998206615447998,6.305087566375732,0.1820324808359146,-0.0537545569241046,-0.0769667476415634,#
-6.845865249633789,2.038684844970703,6.764510154724121,0.0916270837187767,0.0439810007810592,-0.1563768982887268,#
-6.75493860244751,2.033899307250977,6.429513931274414,0.1832541674375534,0.0244338884949684,-0.3042019307613373,#
-7.22871732711792,2.931207656860352,4.752145767211914,0.2626643180847168,-0.0061084721237421,-0.3640649616718292,#
-7.22871732711792,2.931207656860352,4.752145767211914,0.2761029601097107,-0.0134386392310261,-0.4312581717967987,#
-7.422535419464111,3.4719858169555664,4.828716278076172,0.1197260618209838,0.0048867780715227,-0.448361873626709,#
-6.9344000816345215,2.2061824798583984,5.568098068237305,-0.4080459475517273,0.0635281130671501,-0.3982723951339721,#
-8.087740898132324,1.6103696823120115,5.620740413665772,-0.5570926666259766,0.1441599577665329,-0.4434750974178314,#
-9.236295700073242,2.0123636722564697,4.938785552978516,-0.3396310806274414,0.1893626451492309,-0.4642439186573028,#
-8.920442581176758,2.3234307765960693,5.106283187866211,0.3139754831790924,0.1673721522092819,-0.3811686933040619,#
-8.920442581176758,2.3234307765960693,5.106283187866211,0.4923428893089294,0.0794101431965828,-0.3445178270339966,#
-8.563912391662598,2.4095723628997803,5.271388053894043,0.4239279925823211,0.0415376126766204,-0.342074453830719,#
-8.762516975402832,1.514656662940979,5.580062389373779,0.0500894747674465,0.0452026948332786,-0.3017585575580597,#
-8.592625617980957,1.3304094076156616,5.69013261795044,-0.1050657257437706,-0.0061084721237421,-0.3897205293178558,#
-8.324630737304688,1.4045867919921875,5.041677951812744,-0.3176405727863312,-0.0464243926107883,-0.3775035738945007,#
-8.324630737304688,1.4045867919921875,5.041677951812744,-0.2932066619396209,-0.0818535313010215,-0.3738385140895843,#
-7.925028324127197,1.2370892763137815,5.338387489318848,-0.261442631483078,-0.0781884491443634,-0.3811686933040619,#
-7.721638679504394,0.8111668825149536,6.111269474029541,-0.2663294076919555,-0.0488677769899368,-0.3359659910202026,#
-7.982456684112549,0.7728817462921143,6.340980052947998,-0.0268772784620523,0.0806318372488021,-0.2284568697214126,#
-7.621140003204346,0.9284151792526244,6.147161483764648,0.0268772784620523,0.0989572554826736,-0.1563768982887268,#
-7.621140003204346,0.9284151792526244,6.147161483764648,0.129499614238739,0.0439810007810592,-0.0659715011715889,#
-7.728816509246826,1.2993026971817017,5.178067684173584,0.1502684205770492,0.0293206684291362,-0.1075091138482093,#
-8.070990562438965,1.8927226066589355,4.649254322052002,0.069636583328247,0.003665083553642,-0.1075091138482093,#
-7.853243827819824,1.7156537771224976,5.288137912750244,-0.2651077210903168,0.0146603342145681,-0.123391143977642,#
-7.728816509246826,1.7994027137756348,5.5274200439453125,-0.3921639025211334,0.0378725305199623,-0.130721315741539,#
-8.169095993041992,1.758724570274353,5.594419479370117,-0.3787252902984619,0.0745233595371246,-0.0965138673782348,#
-8.169095993041992,1.758724570274353,5.594419479370117,-0.1160609796643257,0.0574196390807628,-0.0647498071193695,#
-8.346165657043457,1.3375877141952517,5.034498691558838,0.040315918624401,0.0390942245721817,-0.0427593067288398,#
-8.10688304901123,1.0552347898483276,5.132604122161865,0.1795890927314758,-0.0122169442474842,-0.0048867780715227,#
-8.135597229003906,1.7252250909805298,5.496313571929932,0.0586413368582725,-0.0574196390807628,-0.0464243926107883,#
-7.98963451385498,1.722832441329956,6.02512788772583,-0.0134386392310261,-0.0598630309104919,-0.0525328628718853,#
-7.98963451385498,1.722832441329956,6.02512788772583,-0.1331647038459777,-0.0464243926107883,-0.0598630309104919,#
-7.970492362976074,1.8855443000793457,6.056234359741211,-0.1563768982887268,-0.0390942245721817,-0.0720799788832664,#
-7.94177770614624,1.368694543838501,5.742774486541748,-0.1111741960048675,-0.0256555844098329,-0.0488677769899368,#
-8.104490280151367,0.9547362923622132,4.993820667266846,-0.0561979450285434,-0.0024433890357613,-0.0280989725142717,#
-7.932207107543945,0.9547362923622132,5.675775527954102,-0.0354291386902332,0.0061084721237421,-0.0232121963053941,#
-7.965706348419189,1.8185452222824097,6.16391134262085,0.0024433890357613,-0.0024433890357613,-0.0342074446380138,#
-7.965706348419189,1.8185452222824097,6.16391134262085,0.2040229737758636,0.0439810007810592,0.0244338884949684,#
-8.300702095031738,1.7802598476409912,6.005984783172607,0.2101314514875412,0.0574196390807628,0.0439810007810592,#
-8.236095428466797,1.6534404754638672,5.819344997406006,0.0781884491443634,0.031764056533575,0.0415376126766204,#
-8.317451477050781,1.56969153881073,4.989035129547119,-0.0647498071193695,-0.0012216945178806,0.0671931952238082,#
-8.25284481048584,1.1940184831619265,5.206782341003418,-0.1429382413625717,0.0097735561430454,0.0842969194054603,#
-8.25284481048584,1.1940184831619265,5.206782341003418,-0.1661504507064819,-0.0268772784620523,0.0781884491443634,#
-7.9728851318359375,1.2514461278915403,5.998805999755859,-0.0659715011715889,-0.0244338884949684,0.0769667476415634,#
-8.164310455322266,1.741974949836731,6.008377552032471,0.1918060332536697,0.0109952501952648,0.1209477484226226,#
-8.24566650390625,1.2251251935958862,5.871986389160156,0.2932066619396209,0.007330167107284,0.1075091138482093,#
-8.001599311828613,1.9094725847244265,5.644669055938721,0.2919849753379822,-0.0183254163712263,0.0940704718232154,#
-8.001599311828613,1.9094725847244265,5.644669055938721,0.199136197566986,-0.0525328628718853,0.0965138673782348,#
-8.008777618408203,2.1128623485565186,4.90528678894043,0.0659715011715889,-0.0232121963053941,0.0720799788832664,#
-8.10688304901123,1.7012970447540283,5.613561630249023,-0.1710372269153595,0.0329857505857944,0.0232121963053941,#
-7.99681282043457,2.447857618331909,6.192624568939209,0.0171037223190069,0.0769667476415634,0.0855186134576797,#
-7.795816421508789,4.249652862548828,6.388835906982422,0.2040229737758636,0.0830752253532409,0.1185043603181839,#
-7.623533248901367,5.130211353302002,5.855237007141113,0.31641885638237,0.040315918624401,0.1661504507064819,#
-7.623533248901367,5.130211353302002,5.855237007141113,0.634059488773346,0.0280989725142717,0.0048867780715227,#
-7.680960178375244,5.580062389373779,5.216352939605713,0.8209787011146545,-0.0415376126766204,-0.1979145109653473,#
-6.826723098754883,6.912864685058594,5.417350769042969,0.8197570443153381,-0.129499614238739,-0.554649293422699,clockwise
-5.740381240844727,8.688338279724121,4.828716278076172,0.2577775418758392,-0.1172826737165451,-0.9492565989494324,clockwise
-3.369094133377075,7.891529560089111,3.613162040710449,-0.4178195297718048,-0.1453816443681717,-1.0726476907730105,clockwise
-3.369094133377075,7.891529560089111,3.613162040710449,-1.6639479398727417,-0.178367406129837,-1.5833160877227783,clockwise
-2.3090739250183105,5.855237007141113,3.775874137878418,-2.042673110961914,-0.2186833024024963,-1.9547111988067627,clockwise
-2.4741785526275635,5.472385883331299,4.302295207977295,-1.930277228355408,-0.1979145109653473,-2.5386812686920166,clockwise
-2.335394859313965,6.149554252624512,4.175475597381592,-1.2937743663787842,-0.2382304221391677,-2.81234073638916,clockwise
-0.9667003750801086,3.5054850578308105,3.35713005065918,-1.4477078914642334,-0.3176405727863312,-2.90030288696289,clockwise
0.9882357716560364,0.5264209508895874,2.0650060176849365,-2.2063801288604736,-0.5021164417266846,-3.4549520015716557,clockwise
0.9882357716560364,0.5264209508895874,2.0650060176849365,-3.112877607345581,-0.5632011890411377,-3.931412696838379,clockwise
2.6799612045288086,-2.711068153381348,2.1846470832824707,-3.334004163742065,-0.4190412163734436,-4.070686340332031,clockwise
3.828516006469727,-6.254837989807129,2.476571559906006,-2.649855375289917,0.031764056533575,-4.297921180725098,clockwise
4.175475597381592,-6.154339790344238,1.950150489807129,-2.100092887878418,0.1832541674375534,-4.214846134185791,clockwise
