accX,accY,accZ,gyrX,gyrY,gyrZ,annotation
9.099905014038086,-3.754338502883911,-0.784845769405365,0.0610847249627113,0.1123958900570869,0.0525328628718853,#
9.044869422912598,-3.8668015003204346,-0.9140582084655762,-0.0256555844098329,0.1270562261343002,0.0855186134576797,#
9.04726219177246,-4.046263217926025,-0.7657032012939453,-0.0830752253532409,0.1209477484226226,0.0989572554826736,#
9.04726219177246,-4.046263217926025,-0.7657032012939453,-0.1856975704431533,0.1087308079004287,0.1185043603181839,#
8.901299476623535,-3.981656789779663,-0.8638089299201965,-0.2370087206363678,0.0928487852215766,0.1539334952831268,#
9.078369140625,-4.175475597381592,-0.8207381367683411,-0.3261924386024475,0.0830752253532409,0.1673721522092819,#
9.044869422912598,-4.409972190856934,-0.6340980529785156,-0.42270627617836,0.0769667476415634,0.2125748395919799,#
9.06879711151123,-4.591826438903809,-0.6867401003837585,-0.4569137394428253,0.0781884491443634,0.2443388998508453,#
9.176474571228027,-4.859822750091553,-0.3493521213531494,-0.4764608442783355,0.0794101431965828,0.2980934381484985,#
9.176474571228027,-4.859822750091553,-0.3493521213531494,-0.53143709897995,0.1026223376393318,0.3701734542846679,#
9.21715259552002,-4.807180881500244,-0.5335994362831116,-0.5766398310661316,0.0940704718232154,0.4129327237606048,#
9.3128662109375,-5.005784511566162,-0.6197410225868225,-0.6755970120429993,0.1050657257437706,0.4923428893089294,#
9.231510162353516,-5.321637630462647,-0.4187439680099487,-0.786771297454834,0.1392731666564941,0.6084038615226746,#
9.257830619812012,-5.819344997406006,-0.3517449200153351,-0.8148701786994934,0.1600419729948043,0.6646018028259277,#
9.480363845825195,-6.613761901855469,-0.3254238963127136,-0.8441908955574036,0.1954711079597473,0.7721109390258789,#
9.480363845825195,-6.613761901855469,-0.3254238963127136,-0.8050966858863831,0.1918060332536697,0.8783983588218689,#
9.93260669708252,-8.159524917602539,-0.1411765366792678,-0.6878139972686768,0.21135313808918,0.9284878373146056,#
10.016355514526367,-9.664610862731934,0.4929214715957641,-0.2834331095218658,0.2602209150791168,1.0286667346954346,#
9.937392234802246,-9.678967475891112,1.3232309818267822,0.4288147687911987,0.2382304221391677,1.0421053171157837,#
10.200602531433104,-9.293723106384276,1.6965112686157229,0.7794410586357117,0.2162399291992187,1.0531005859375,#
10.200602531433104,-9.293723106384276,1.6965112686157229,1.440377712249756,0.1637070626020431,1.1435059309005735,#
10.576275825500488,-10.877771377563477,2.00518536567688,1.714037299156189,0.1747023165225982,1.2155860662460327,#
11.437692642211914,-13.378270149230955,2.816352128982544,2.378638982772827,0.2748812437057495,1.3120999336242676,#
12.808778762817385,-14.57468318939209,3.2781667709350586,2.715826749801636,0.5338804721832275,1.494132399559021,#
14.165509223937988,-14.677574157714844,3.6610186100006095,2.8367743492126465,0.6646018028259277,1.6065282821655271,#
14.634504318237305,-15.084354400634766,4.443471908569336,2.901524305343628,1.035996913909912,1.9974703788757324,#
14.634504318237305,-15.084354400634766,4.443471908569336,2.9442837238311768,1.510014295578003,2.6694023609161377,#
14.285151481628418,-15.555739402770996,5.367101192474365,2.797680377960205,1.7348061800003052,3.022472381591797,#
14.170295715332031,-15.706487655639648,5.525027275085449,2.427506923675537,2.057333469390869,3.787252902984619,#
13.64626693725586,-16.503297805786133,4.95792818069458,1.859418988227844,2.3871910572052,4.539816379547119,#
13.15573787689209,-16.969898223876953,4.118047714233398,1.6431790590286257,2.516690492630005,4.839131832122803,#
13.15573787689209,-16.969898223876953,4.118047714233398,1.5674339532852173,2.8221142292022705,5.431653499603272,#
12.366107940673828,-16.869400024414062,3.5772697925567627,2.048781633377075,3.0481276512146,5.853137969970703,#
10.561919212341309,-14.033905029296877,2.888136863708496,2.4666011333465576,3.1324245929718018,6.042500972747803,#
7.549355506896973,-10.588239669799805,1.7467604875564575,3.112877607345581,3.3926455974578857,6.329599380493164,#
4.900500774383545,-9.298508644104004,1.94297194480896,3.3804285526275635,3.463503837585449,6.428556442260742,#
3.072384119033813,-8.080562591552734,2.581855773925781,3.716394662857056,3.43051815032959,6.432221412658691,#
3.072384119033813,-8.080562591552734,2.581855773925781,4.143987655639648,3.277806282043457,6.08648157119751,#
1.7563319206237793,-7.008577823638916,3.273381233215332,4.544703483581543,3.28024959564209,5.834813117980957,#
0.7417750358581543,-5.522634029388428,4.02472734451294,5.074918746948242,3.2326035499572754,5.1543288230896,#
-0.1914258003234863,-4.579862117767334,3.8596229553222656,5.116456508636475,3.078670024871826,4.555698871612549,#
-1.0528419017791748,-3.747160196304321,3.598805427551269,4.884335041046143,2.951613664627075,4.252718448638916,#
-2.225324869155884,-2.68953275680542,2.63449764251709,4.069464206695557,2.50813889503479,3.788474798202514,#
-2.225324869155884,-2.68953275680542,2.63449764251709,3.33889102935791,2.205158472061157,3.428074598312378,#
-2.313859462738037,-2.25403904914856,2.778067111968994,3.2411556243896484,2.068328857421875,3.222830057144165,#
-1.797009825706482,-1.1868400573730469,2.84506630897522,3.1983959674835205,1.9534894227981567,2.695058107376098,#
-2.007578134536743,-0.6460621356964111,2.4095723628997803,3.261924266815185,2.1538474559783936,2.1196398735046387,#
-2.1846470832824707,0.114855483174324,2.3330020904541016,3.3107919692993164,2.273573398590088,1.8997348546981807,#
-2.1846470832824707,0.114855483174324,2.3330020904541016,3.3682117462158203,2.5264639854431152,1.5149011611938477,#
-1.8161523342132568,0.8111668825149536,3.0101709365844727,3.4354047775268555,2.6718456745147705,1.3401988744735718,#
-2.139183282852173,1.3375877141952517,2.6847469806671143,3.4317398071289062,3.0615663528442383,1.0836429595947266,#
-2.1056838035583496,1.6773687601089478,2.057827472686768,3.2765846252441406,3.2216084003448486,0.8307521939277649,#
-2.163111686706543,1.5337992906570437,2.007578134536743,3.0823352336883545,3.291244983673096,0.7769976854324341,#
-2.4813570976257324,0.9762716889381408,1.4811571836471558,2.7268221378326416,3.158080101013184,0.6743753552436829,#
-2.4813570976257324,0.9762716889381408,1.4811571836471558,2.216153860092163,3.002924919128418,0.4825693070888519,#
-2.311466693878174,1.043270707130432,0.6125625967979431,1.9498244524002075,2.730487108230591,0.4190412163734436,#
-2.620140790939331,1.0600204467773438,-1.191625714302063,1.3096565008163452,2.2576913833618164,0.3213056325912475,#
-2.3497519493103027,1.7443678379058838,-2.1511476039886475,0.9077189564704896,1.803221106529236,0.2137965410947799,#
-2.71346116065979,2.007578134536743,-2.746960401535034,0.7293516397476196,1.659061074256897,0.1734806150197982,#
-2.770888566970825,2.25403904914856,-3.208775281906128,0.4092676639556885,1.3792930841445925,0.1221694499254226,#
-2.770888566970825,2.25403904914856,-3.208775281906128,0.1881409436464309,1.0958600044250488,0.0549762547016143,#
-2.7972097396850586,2.337787628173828,-3.8524444103240967,0.0561979450285434,0.896723747253418,0.0452026948332786,#
-2.4885356426239014,2.648854732513428,-4.67078971862793,-0.0830752253532409,0.4422534108161926,-0.0378725305199623,#
-2.7661027908325195,2.6081764698028564,-5.07517671585083,-0.282211422920227,-0.0244338884949684,-0.1050657257437706,#
-3.10109806060791,2.699103832244873,-4.673182487487793,-0.3897205293178558,-0.3017585575580597,-0.1429382413625717,down
-3.10109806060791,2.699103832244873,-4.673182487487793,-0.5705313086509705,-0.8197570443153381,-0.2137965410947799,down
-2.981456995010376,2.902493953704834,-4.474578380584717,-0.6303943395614624,-1.100746750831604,-0.2492256760597229,down
-2.737389087677002,2.8187451362609863,-4.766502857208252,-0.7806627750396729,-1.6639479398727417,-0.388498842716217,down
-2.2851457595825195,2.093719720840454,-4.505684852600098,-0.9541434049606324,-2.1770594120025635,-0.549762487411499,down
-1.5984054803848269,1.871187210083008,-3.948157548904419,-0.9969027042388916,-2.42995023727417,-0.6560499668121338,down
-0.8925228118896484,1.4548362493515017,-3.0556347370147705,-1.099524974822998,-2.878312110900879,-0.8686248064041138,down
-0.8925228118896484,1.4548362493515017,-3.0556347370147705,-1.2974395751953125,-3.390202283859253,-1.1056334972381592,down
0.2823530733585357,1.0815558433532717,-2.4717857837677,-1.382958173751831,-3.656531572341919,-1.2216944694519043,down
1.368694543838501,0.5144568681716919,-2.1894328594207764,-1.5564388036727903,-4.158648014068604,-1.5197879076004028,down
2.266003131866455,-0.1938186287879943,-1.6965112686157229,-1.7445796728134155,-4.65099048614502,-1.907065153121948,down
3.266202926635742,-1.1006983518600464,-0.6819544434547424,-1.885074615478516,-4.896551609039307,-2.1257483959198,down
3.266202926635742,-1.1006983518600464,-0.6819544434547424,-2.1575124263763428,-5.476856231689453,-2.528907537460327,down
5.032106399536133,-1.9740787744522093,0.6556334495544434,-2.1856114864349365,-6.118246078491211,-3.0163636207580566,down
6.795616626739502,-1.9908283948898315,3.0556347370147705,-2.006022453308105,-6.412674427032471,-3.2582592964172363,down
9.592825889587402,-3.2781667709350586,5.886343479156494,-1.6883817911148071,-7.1640167236328125,-3.688295602798462,down
11.765508651733398,-4.88853645324707,9.107083320617676,-1.6248536109924316,-8.180466651916504,-4.074350833892822,down
15.098711013793944,-5.54177713394165,9.131011009216309,-1.7653485536575315,-8.818190574645996,-4.102449893951416,down
15.098711013793944,-5.54177713394165,9.131011009216309,-2.0182392597198486,-9.989795684814451,-4.104893207550049,down
16.36451530456543,-6.668797016143799,5.663811206817627,-2.263799905776977,-10.469922065734863,-4.036478519439697,down
19.628324508666992,-5.836094379425049,2.469392776489258,-2.5912139415740967,-10.980589866638184,-3.717616319656372,down
24.114866256713867,-3.548555850982666,1.9932212829589844,-2.8245575428009038,-10.695934295654297,-3.4244096279144287,down
30.05624389648437,-2.0961124897003174,3.053241729736328,-2.9406187534332275,-10.567657470703123,-3.833677291870117,down
30.362525939941406,-1.373480200767517,4.931607723236084,-1.7396929264068604,-9.699031829833984,-4.789042472839356,down
30.362525939941406,-1.373480200767517,4.931607723236084,-0.7953230738639832,-8.308744430541992,-2.571666955947876,down
29.28097152709961,-2.038684844970703,5.869593620300293,-1.2583452463150024,-7.264195442199707,-1.8728575706481931,down
27.82852554321289,-4.634897232055664,7.152146816253662,-2.1452953815460205,-5.761510848999023,-1.538113355636597,down
25.445276260375977,-4.807180881500244,7.635497093200684,-2.233257532119751,-4.250275135040283,-1.2229161262512207,down
23.77987289428711,-4.438685894012451,9.28175926208496,-2.183168172836304,-3.612550735473633,-0.9920158982276917,down
23.77987289428711,-4.438685894012451,9.28175926208496,-2.428728580474853,-2.5936574935913086,-0.4972296357154846,down
20.33660125732422,-3.072384119033813,12.672389030456545,-2.7524778842926025,-2.210045337677002,-0.175924003124237,down
18.530017852783203,-7.621140003204346,10.494919776916504,-3.7078425884246826,-1.8972915410995483,0.5632011890411377,down
16.685152053833008,-11.578868865966797,4.792823314666748,-3.886210203170776,-1.83132004737854,0.1869192570447921,down
12.210573196411133,-10.533205032348633,2.033899307250977,-3.4244096279144287,-1.5454435348510742,0.2284568697214126,down
10.152746200561523,-8.075776100158691,1.0097711086273191,-2.1562907695770264,-0.3775035738945007,0.3274141252040863,down
10.152746200561523,-8.075776100158691,1.0097711086273191,-1.3304253816604614,0.2748812437057495,0.6230642199516296,down
9.059226989746094,-7.0923261642456055,1.160519003868103,-1.0017894506454468,0.5925218462944031,0.8209787011146545,down
9.06401252746582,-6.486942291259766,1.6462620496749878,-0.7464553117752075,1.031110167503357,0.998124361038208,down
8.451449394226074,-5.962913990020752,1.0001999139785769,-0.813648521900177,1.172826647758484,1.0176715850830078,down
7.683353424072266,-5.819344997406006,0.9308080077171326,-0.680483877658844,1.1826002597808838,0.9284878373146056,down
7.683353424072266,-5.819344997406006,0.9308080077171326,-0.0415376126766204,1.0653176307678225,0.6768187284469604,down
7.685746192932129,-5.000998973846436,0.7513462901115417,0.3274141252040863,0.7342383861541748,0.4923428893089294,down
8.118846893310547,-4.015156269073486,0.3397807776927948,0.4019374847412109,0.5974085927009583,0.439810037612915,down
8.571090698242188,-3.864408254623413,0.0837487876415252,0.4874561131000519,0.261442631483078,0.2516690790653229,down
8.894121170043945,-3.9553356170654297,-0.0071784676983952,0.5033381581306458,-0.0647498071193695,0.0623064190149307,#
9.236295700073242,-3.969692707061768,-0.2177468687295913,0.4886777997016907,-0.1820324808359146,-0.0097735561430454,#
9.236295700073242,-3.969692707061768,-0.2177468687295913,0.499673068523407,-0.3115321099758148,-0.1478250324726104,#
9.4660062789917,-3.596412420272827,-0.2799602448940277,0.5057815313339233,-0.3127537965774536,-0.2040229737758636,#
9.738788604736328,-3.294916868209839,-0.3637090623378753,0.4813476204872131,-0.2394521236419677,-0.2333436459302902,#
9.822537422180176,-3.041277408599853,-0.3756731450557709,0.4691306948661804,-0.1270562261343002,-0.1624853760004043,#
10.054640769958496,-3.146562099456787,-0.4450649619102478,0.393385648727417,-0.0329857505857944,-0.1600419729948043,#
9.990034103393556,-3.136990547180176,-0.3924228847026825,0.235787034034729,0.1197260618209838,-0.0891837030649185,#
9.990034103393556,-3.136990547180176,-0.3924228847026825,0.2431172132492065,0.2712161839008331,0.069636583328247,#
9.822537422180176,-2.8522443771362305,-0.1962114423513412,0.2577775418758392,0.3738385140895843,0.0647498071193695,#
9.580862045288086,-1.871187210083008,0.0334995165467262,0.1600419729948043,0.5326588153839111,0.123391143977642,#
9.454042434692385,-1.5481561422348022,0.2416750937700271,0.0671931952238082,0.5790832042694092,0.1954711079597473,#
9.68375301361084,-1.727617859840393,1.1748759746551514,-0.0366508327424526,0.5509842038154602,0.1771456897258758,#
9.68375301361084,-1.727617859840393,1.1748759746551514,-0.2907632887363434,0.4862344264984131,0.2577775418758392,#
9.619147300720217,-1.2538390159606934,1.7898313999176023,-0.256555825471878,0.4862344264984131,0.3323009014129638,#
9.198010444641112,-0.5718846321105957,1.6007983684539795,-0.2699944972991943,0.393385648727417,0.2846547961235046,#
9.461220741271973,-1.794616937637329,0.8590233325958252,-0.73912513256073,0.0928487852215766,0.1270562261343002,#
9.470791816711426,-2.691925525665283,0.4570291042327881,-0.9003888368606567,-0.0342074446380138,0.0879620015621185,#
9.461220741271973,-3.524627923965454,0.3541377484798431,-1.119072198867798,-0.200357899069786,0.0256555844098329,#
9.461220741271973,-3.524627923965454,0.3541377484798431,-1.0897514820098877,-0.1930277347564697,-0.0733016654849052,#
9.53779125213623,-3.945764780044556,0.1603191047906875,-0.9223793148994446,-0.155155211687088,-0.0965138673782348,#
9.382257461547852,-3.902693748474121,-0.0263210479170084,-0.4666872918605804,-0.069636583328247,-0.1588202863931656,#
9.33440113067627,-3.744767427444458,-0.1746760606765747,-0.152711808681488,-0.0158820282667875,-0.1466033309698104,#
9.24825954437256,-3.397808313369751,-0.2392822504043579,-0.0305423624813556,-0.0134386392310261,-0.1209477484226226,#
9.269794464111328,-3.366701364517212,-0.2105683833360672,0.0635281130671501,0.0012216945178806,-0.0720799788832664,#
9.269794464111328,-3.366701364517212,-0.2105683833360672,0.0219905003905296,-0.0244338884949684,-0.0513111688196659,#
9.272188186645508,-3.25663161277771,-0.1196411252021789,-0.0280989725142717,-0.0342074446380138,-0.0305423624813556,#
9.221939086914062,-3.404986619949341,0.0550349205732345,-0.1661504507064819,-0.0439810007810592,0.0048867780715227,#
9.26740264892578,-3.2279179096221924,0.0717846825718879,-0.1734806150197982,-0.0488677769899368,0.007330167107284,#
9.31765079498291,-3.086741209030152,0.1842473447322845,-0.1514901220798492,-0.0427593067288398,0.0109952501952648,#
9.31765079498291,-3.086741209030152,0.1842473447322845,-0.128277912735939,-0.0280989725142717,0.0207688063383102,#
9.30329418182373,-3.041277408599853,0.2009970992803573,-0.1319430023431778,-0.0268772784620523,0.0268772784620523,#
9.410971641540527,-3.077169895172119,0.2440679222345352,-0.1185043603181839,-0.0427593067288398,0.0158820282667875,#
9.425328254699709,-3.002992391586304,0.2871387302875519,-0.1221694499254226,-0.0342074446380138,0.0146603342145681,#
9.355937004089355,-3.046063184738159,0.2177468687295913,-0.128277912735939,-0.0293206684291362,0.0134386392310261,#
9.370293617248535,-3.077169895172119,0.0789631456136703,-0.1209477484226226,-0.0195471122860908,0.0146603342145681,#
9.370293617248535,-3.077169895172119,0.0789631456136703,-0.1087308079004287,-0.0354291386902332,0.003665083553642,#
9.35832977294922,-3.06999135017395,-0.057427741587162,-0.0989572554826736,-0.0476460866630077,-0.0061084721237421,#
9.410971641540527,-3.081955671310425,-0.12921242415905,-0.0733016654849052,-0.0659715011715889,-0.0244338884949684,#
9.415757179260254,-3.1345977783203125,-0.0406779870390892,-0.0610847249627113,-0.0684148892760276,-0.0329857505857944,#
9.401400566101074,-3.129812002182007,-0.0143569353967905,-0.0500894747674465,-0.0659715011715889,-0.0378725305199623,#
9.401400566101074,-3.129812002182007,-0.0143569353967905,-0.0293206684291362,-0.0623064190149307,-0.0378725305199623,#
9.351150512695312,-3.1513471603393555,-0.1842473447322845,-0.0146603342145681,-0.0708582773804664,-0.0390942245721817,#
9.343972206115724,-3.177668571472168,-0.2129612118005752,0.0219905003905296,-0.0806318372488021,-0.0439810007810592,#
9.382257461547852,-3.1058835983276367,-0.1986042857170105,0.0525328628718853,-0.0794101431965828,-0.0488677769899368,#
9.382257461547852,-3.1345977783203125,-0.1339980661869049,0.1185043603181839,-0.0769667476415634,-0.0488677769899368,#
9.408578872680664,-3.0077781677246094,-0.1866401582956314,0.1661504507064819,-0.0769667476415634,-0.0513111688196659,#
9.408578872680664,-3.0077781677246094,-0.1866401582956314,0.1930277347564697,-0.0733016654849052,-0.0500894747674465,#
9.480363845825195,-2.9551358222961426,-0.12921242415905,0.21135313808918,-0.0757450610399246,-0.0476460866630077,#
9.482755661010742,-2.895315170288086,-0.1363908797502517,0.2076880484819412,-0.0647498071193695,-0.0500894747674465,#
9.559326171875,-2.799602746963501,-0.1124626696109771,0.199136197566986,-0.0586413368582725,-0.0488677769899368,#
9.523433685302734,-2.775674343109131,-0.1483550071716308,0.1698155403137207,-0.0574196390807628,-0.0415376126766204,#
9.506684303283691,-2.682354211807251,-0.0765703245997428,0.1417165547609329,-0.0500894747674465,-0.0329857505857944,#
9.506684303283691,-2.682354211807251,-0.0765703245997428,0.128277912735939,-0.0464243926107883,-0.0280989725142717,#
9.542576789855955,-2.6703903675079346,-0.0693918615579605,0.1062874197959899,-0.0500894747674465,-0.0195471122860908,#
9.571290969848633,-2.620140790939331,-0.1603191047906875,0.0671931952238082,-0.0464243926107883,-0.0122169442474842,#
9.578469276428224,-2.67278265953064,-0.1196411252021789,0.031764056533575,-0.0513111688196659,-0.0109952501952648,#
9.480363845825195,-2.71346116065979,-0.1962114423513412,0.0024433890357613,-0.0623064190149307,-0.0012216945178806,#
9.480363845825195,-2.71346116065979,-0.1962114423513412,-0.0097735561430454,-0.0513111688196659,-0.0109952501952648,#
9.504291534423828,-2.6536402702331543,-0.1435693651437759,-0.0244338884949684,-0.0488677769899368,-0.0134386392310261,#
9.418149948120115,-2.711068153381348,-0.1052841916680336,-0.0390942245721817,-0.0488677769899368,-0.0122169442474842,#
9.425328254699709,-2.749353408813477,-0.0837487876415252,-0.0476460866630077,-0.0476460866630077,-0.0146603342145681,#
9.42054271697998,-2.7589242458343506,-0.1004985496401786,-0.0574196390807628,-0.0452026948332786,-0.0195471122860908,#
9.384650230407717,-2.770888566970825,-0.0813559740781784,-0.0537545569241046,-0.0561979450285434,-0.0256555844098329,#
9.384650230407717,-2.770888566970825,-0.0813559740781784,-0.0549762547016143,-0.0513111688196659,-0.0244338884949684,#
9.343972206115724,-2.864208698272705,-0.1698903888463974,-0.0684148892760276,-0.0415376126766204,-0.0195471122860908,#
9.365508079528809,-2.9288151264190674,-0.12921242415905,-0.0733016654849052,-0.0354291386902332,-0.0122169442474842,#
9.379864692687988,-2.9383859634399414,-0.1890329867601394,-0.0745233595371246,-0.0378725305199623,-0.0097735561430454,#
9.561718940734863,-2.971885919570923,-0.1411765366792678,-0.0794101431965828,-0.0232121963053941,-0.007330167107284,#
9.497113227844238,-3.0149567127227783,-0.2033899277448654,-0.0671931952238082,-0.0109952501952648,-0.003665083553642,#
9.497113227844238,-3.0149567127227783,-0.2033899277448654,-0.0561979450285434,-0.007330167107284,-0.0048867780715227,#
9.432506561279297,-2.967100143432617,-0.1794617027044296,-0.0207688063383102,0.003665083553642,-0.007330167107284,#
9.367900848388672,-2.900100946426392,-0.1698903888463974,-0.0012216945178806,0.0085518611595034,-0.003665083553642,#
9.408578872680664,-2.868994235992432,-0.1651047617197036,-0.003665083553642,0.0109952501952648,-0.003665083553642,#
9.322437286376951,-2.864208698272705,-0.1316052377223968,-0.0232121963053941,0.0134386392310261,0.0061084721237421,#
9.322437286376951,-2.864208698272705,-0.1316052377223968,-0.0329857505857944,0.0134386392310261,0.007330167107284,#
9.446864128112791,-2.8211379051208496,-0.1316052377223968,-0.0513111688196659,0.0109952501952648,0.0122169442474842,#
9.461220741271973,-2.864208698272705,-0.1698903888463974,-0.0647498071193695,0.003665083553642,0.0122169442474842,#
9.408578872680664,-2.849851608276367,-0.1196411252021789,-0.0708582773804664,0.0024433890357613,0.0134386392310261,#
9.4660062789917,-2.8522443771362305,-0.1627119481563568,-0.0708582773804664,0.003665083553642,0.0146603342145681,#
9.473184585571287,-2.919243574142456,-0.1603191047906875,-0.0610847249627113,0.0024433890357613,0.0134386392310261,#
9.473184585571287,-2.919243574142456,-0.1603191047906875,-0.0525328628718853,0.0061084721237421,0.0122169442474842,#
9.499505043029783,-2.919243574142456,-0.2081755697727203,-0.031764056533575,0.0085518611595034,0.0109952501952648,#
9.442078590393066,-2.931207656860352,-0.1938186287879943,-0.0195471122860908,0.003665083553642,0.0061084721237421,#
9.470791816711426,-2.914458036422729,-0.1651047617197036,-0.0134386392310261,0.0061084721237421,0.007330167107284,#
9.442078590393066,-2.8761727809906006,-0.1746760606765747,-0.0012216945178806,0.0097735561430454,0.007330167107284,#
9.442078590393066,-2.8761727809906006,-0.1746760606765747,0.0061084721237421,0.0109952501952648,0.0061084721237421,#
9.415757179260254,-2.9072794914245605,-0.1794617027044296,0.0195471122860908,0.0085518611595034,0.0048867780715227,#
9.446864128112791,-2.8522443771362305,-0.1674975752830505,0.0219905003905296,0.0122169442474842,0.0048867780715227,#
9.458827018737791,-2.8809585571289062,-0.2273181527853012,0.0183254163712263,0.0097735561430454,0.0048867780715227,#
9.434900283813477,-2.8283162117004395,-0.3158525824546814,0.0085518611595034,0.0024433890357613,0.003665083553642,#
9.523433685302734,-2.854637384414673,-0.2727817595005035,-0.0012216945178806,0.0097735561430454,0.0048867780715227,#
9.523433685302734,-2.854637384414673,-0.2727817595005035,-0.0085518611595034,0.0122169442474842,0.007330167107284,#
9.413363456726074,-2.854637384414673,-0.246460735797882,-0.0256555844098329,0.007330167107284,0.0122169442474842,#
9.434900283813477,-2.8666017055511475,-0.2177468687295913,-0.0427593067288398,0.003665083553642,0.0146603342145681,#
9.449256896972656,-2.806780815124512,-0.1938186287879943,-0.0488677769899368,0.0061084721237421,0.0158820282667875,#
9.422935485839844,-2.830709218978882,-0.2584248483181,-0.0598630309104919,0.0061084721237421,0.0183254163712263,#
9.408578872680664,-2.8737800121307373,-0.2512463629245758,-0.0720799788832664,0.0024433890357613,0.0146603342145681,#
9.408578872680664,-2.8737800121307373,-0.2512463629245758,-0.0794101431965828,0.0024433890357613,0.0146603342145681,#
9.470791816711426,-2.8666017055511475,-0.1698903888463974,-0.0879620015621185,-0.0024433890357613,0.0134386392310261,#
9.399007797241213,-2.8211379051208496,-0.1962114423513412,-0.0940704718232154,-0.0061084721237421,0.0122169442474842,#
9.401400566101074,-2.8594231605529785,-0.2488535493612289,-0.0928487852215766,-0.0061084721237421,0.0109952501952648,#
9.528220176696776,-2.9072794914245605,-0.260817676782608,-0.0830752253532409,-0.0061084721237421,0.0097735561430454,#
9.528220176696776,-2.9072794914245605,-0.260817676782608,-0.0733016654849052,-0.0061084721237421,0.007330167107284,#
9.487542152404783,-3.0149567127227783,-0.2344966232776641,-0.0549762547016143,-0.0024433890357613,0.0061084721237421,#
9.437292098999023,-2.931207656860352,-0.1483550071716308,-0.0427593067288398,-0.0024433890357613,0.0024433890357613,#
9.410971641540527,-2.878565788269043,-0.2129612118005752,-0.0415376126766204,-0.003665083553642,0.0012216945178806,#
9.521041870117188,-2.919243574142456,-0.236889436841011,-0.040315918624401,-0.0122169442474842,0.0024433890357613,#
9.425328254699709,-3.0077781677246094,-0.2584248483181,-0.0244338884949684,-0.0122169442474842,0.0012216945178806,#
9.425328254699709,-3.0077781677246094,-0.2584248483181,-0.0122169442474842,-0.0097735561430454,0.0024433890357613,#
9.434900283813477,-2.988635540008545,-0.2871387302875519,0.0085518611595034,-0.0183254163712263,0.0061084721237421,#
9.442078590393066,-2.847458839416504,-0.2727817595005035,0.0122169442474842,-0.0207688063383102,0.0109952501952648,#
9.54496955871582,-2.912065029144287,-0.2871387302875519,0.003665083553642,-0.0305423624813556,0.0207688063383102,#
9.619147300720217,-2.950350284576416,-0.3302095234394073,-0.0305423624813556,-0.0537545569241046,0.0305423624813556,#
9.628718376159668,-2.943171739578247,-0.4737788736820221,-0.0488677769899368,-0.0476460866630077,0.0329857505857944,#
9.628718376159668,-2.943171739578247,-0.4737788736820221,-0.0623064190149307,-0.0500894747674465,0.0219905003905296,#
9.889535903930664,-3.034099102020264,-0.5862415432929993,-0.0977355539798736,-0.0610847249627113,0.0134386392310261,#
10.126425743103027,-3.13938307762146,-0.6101697683334351,-0.1014006435871124,-0.0757450610399246,0.0122169442474842,#
10.109675407409668,-3.0939197540283203,-0.6245267391204834,-0.0794101431965828,-0.0708582773804664,0.0329857505857944,#
10.121639251708984,-3.369094133377075,-0.6293123364448547,-0.0830752253532409,-0.0647498071193695,0.0268772784620523,#
10.121639251708984,-3.369094133377075,-0.6293123364448547,-0.0488677769899368,-0.0684148892760276,0.0586413368582725,#
9.899106979370115,-3.232703685760498,-0.430708110332489,-0.0256555844098329,-0.0109952501952648,0.1111741960048675,#
9.719645500183104,-3.2781667709350586,-0.3086740970611572,-0.0122169442474842,0.1429382413625717,0.1905843466520309,#
9.66221809387207,-3.510270833969116,0.0191425811499357,-0.0439810007810592,0.2846547961235046,0.2382304221391677,#
9.10229778289795,-4.036691665649414,0.117248311638832,0.0366508327424526,0.4593571126461029,0.4569137394428253,#
8.877371788024902,-4.278366565704346,-0.0717846825718879,0.1490467190742492,0.4239279925823211,0.620620846748352,#
8.877371788024902,-4.278366565704346,-0.0717846825718879,0.2333436459302902,0.3946073353290558,0.6279509663581848,#
8.501699447631836,-4.357330322265625,-0.3517449200153351,0.4508052766323089,0.2712161839008331,0.652384877204895,#
8.159524917602539,-3.981656789779663,-0.8662018179893494,0.6927007436752319,0.1014006435871124,0.6169556975364685,#
8.166703224182129,-3.3786656856536865,-1.0217353105545044,0.7806627750396729,0.003665083553642,0.6120689511299133,#
8.161917686462402,-3.13938307762146,-1.3040882349014282,0.939483106136322,-0.1563768982887268,0.5949652194976807,#
8.161917686462402,-3.13938307762146,-1.3040882349014282,1.0347752571105957,-0.2199050188064575,0.577861487865448,#
8.616554260253906,-3.500699520111084,-1.4021940231323242,1.2131426334381104,-0.2736595571041107,0.5289937257766724,#
9.250652313232422,-3.838087558746338,-1.2538390159606934,1.4306042194366455,-0.199136197566986,0.3469612300395965,#
9.633503913879396,-4.082155227661133,-0.9619146585464478,1.5637688636779783,-0.1429382413625717,0.2174616158008575,#
9.702895164489746,-4.113262176513672,-0.7417750358581543,1.799556016921997,0.0085518611595034,-0.0561979450285434,#
9.131011009216309,-3.783052444458008,-0.1962114423513412,1.775122046470642,0.2699944972991943,-0.2651077210903168,#
9.131011009216309,-3.783052444458008,-0.1962114423513412,1.6395140886306765,0.3738385140895843,-0.287098228931427,#
8.501699447631836,-4.046263217926025,-0.0239282250404357,1.2265812158584597,0.5338804721832275,-0.2467822879552841,#
8.312665939331055,-4.139583110809326,0.0430708117783069,0.7916580438613892,0.6755970120429993,-0.1747023165225982,#
8.207381248474121,-4.268795490264893,0.1794617027044296,0.5925218462944031,0.7611156702041626,-0.1160609796643257,#
7.77906608581543,-4.316651821136475,0.1579262912273407,0.31641885638237,0.896723747253418,-0.0598630309104919,#
7.317252159118652,-4.015156269073486,-0.0526420958340168,0.1698155403137207,1.0506572723388672,-0.100178949534893,#
7.317252159118652,-4.015156269073486,-0.0526420958340168,0.0989572554826736,1.1056334972381592,-0.0989572554826736,#
7.2502522468566895,-4.098905563354492,-0.2416750937700271,0.0280989725142717,1.2497934103012085,-0.0842969194054603,#
7.274180889129639,-4.275973796844482,-0.3110669553279876,-0.0745233595371246,1.4098354578018188,-0.0855186134576797,#
7.377072334289551,-4.364508152008057,-0.4091726541519165,-0.1441599577665329,1.446486234664917,-0.0855186134576797,#
7.915457248687744,-4.917250633239746,-0.2057827562093734,-0.3017585575580597,1.4122787714004517,-0.0965138673782348,#
7.915457248687744,-4.917250633239746,-0.2057827562093734,-0.4251496791839599,1.3866231441497805,-0.0891837030649185,#
8.520841598510742,-5.718846321105957,-0.1339980661869049,-0.6413896083831787,1.266897201538086,-0.0891837030649185,#
9.119047164916992,-6.068198204040527,0.0478564500808715,-0.919935941696167,1.202147364616394,0.0830752253532409,#
9.439685821533203,-6.573083877563477,0.0358923412859439,-1.0030112266540527,1.109298586845398,0.1099525094032287,#
10.090532302856444,-6.675975322723389,-0.0430708117783069,-0.9675819873809814,0.8234220743179321,0.0024433890357613,#
10.284351348876951,-6.419942855834961,0.1866401582956314,-1.0482138395309448,0.5888567566871643,-0.2443388998508453,#
10.284351348876951,-6.419942855834961,0.1866401582956314,-1.066539287567139,0.4642439186573028,-0.2883199155330658,#
9.90867805480957,-6.31944465637207,0.246460735797882,-0.9138274788856506,0.2541124522686004,-0.3591781854629516,#
9.434900283813477,-5.395814895629883,0.4450649619102478,-0.7049177289009094,0.0305423624813556,-0.5815265774726868,#
9.231510162353516,-4.740181922912598,0.6867401003837585,-0.6352811455726624,-0.100178949534893,-0.6707102656364441,#
9.55214786529541,-4.0797624588012695,1.4572290182113647,-0.5485408306121826,-0.3677300214767456,-0.8674030900001526,#
9.767501831054688,-3.153740167617798,2.177468776702881,-0.7354600429534912,-0.6230642199516296,-1.0140063762664795,#
9.767501831054688,-3.153740167617798,2.177468776702881,-0.911384105682373,-0.7745543122291565,-0.9797989726066588,#
10.00439167022705,-3.122633695602417,2.3018953800201416,-1.3560807704925537,-1.0567656755447388,-0.84541255235672,#
10.274779319763184,-3.1657044887542725,2.3976082801818848,-1.7922258377075195,-1.248571753501892,-0.7379034161567688,#
10.277173042297363,-2.4502503871917725,1.9884356260299685,-2.0011355876922607,-1.2864443063735962,-0.652384877204895,#
11.693723678588867,-3.751945972442627,2.203789472579956,-2.1184182167053223,-1.2180293798446655,-0.4190412163734436,#
11.693723678588867,-3.751945972442627,2.203789472579956,-1.8887397050857544,-1.0885297060012815,-0.3042019307613373,#
14.670394897460938,-3.646661758422852,4.981856822967529,-1.1593880653381348,-0.1258345395326614,-0.4361449182033539,#
15.381063461303713,-2.589033842086792,7.793423175811768,-0.4960079491138458,0.786771297454834,-0.3848337531089782,#
13.2897367477417,-0.9858429431915284,9.422935485839844,-0.5167768001556396,0.8722898364067078,-0.3298574984073639,#
11.294123649597168,-0.3756731450557709,8.45862865447998,-1.5979763269424438,0.4263713657855987,-0.100178949534893,#
11.406585693359377,0.1698903888463974,6.807580471038818,-2.9528355598449707,-0.4886777997016907,0.2626643180847168,#
11.406585693359377,0.1698903888463974,6.807580471038818,-3.408527612686157,-0.7207997441291809,0.2895416021347046,#
11.44008445739746,0.1363908797502517,5.9198431968688965,-3.584451675415039,-0.9492565989494324,0.5277720093727112,#
11.21994400024414,0.1674975752830505,6.235695838928223,-3.370655059814453,-0.4960079491138458,1.0298885107040403,#
10.559525489807127,-0.5359922647476196,6.5659050941467285,-3.248485803604126,-0.1356080919504165,1.2632319927215576,#
9.848857879638672,-1.7635102272033691,6.474977493286133,-3.170297145843506,0.4434750974178314,1.6065282821655271,#
9.848857879638672,-1.7635102272033691,6.474977493286133,-3.2448205947875977,0.6413896083831787,1.8911830186843872,#
9.966106414794922,-3.084348201751709,6.149554252624512,-3.3828721046447754,0.84541255235672,2.017017602920532,#
10.71266746520996,-4.536791324615479,5.54177713394165,-3.4439568519592285,1.1569446325302124,2.097649574279785,#
11.251051902770996,-5.146961212158203,4.989035129547119,-3.379206895828247,1.446486234664917,2.113531351089477,#
11.19362449645996,-5.733203411102295,4.500899314880371,-3.1776275634765625,2.068328857421875,2.212488889694214,#
11.260623931884766,-7.068397998809815,4.5391845703125,-2.9577224254608154,2.7817983627319336,2.373752355575561,#
11.260623931884766,-7.068397998809815,4.5391845703125,-2.866095304489136,3.073783159255981,2.4421675205230717,#
11.277373313903809,-7.893921852111816,4.438685894012451,-2.7952370643615723,3.5221450328826904,2.5961008071899414,#
10.942378044128418,-9.164510726928713,3.79262375831604,-2.647412061691284,3.798248291015625,2.762251377105713,#
10.85145092010498,-9.588040351867676,2.7661027908325195,-2.739039182662964,3.925304412841797,2.892972469329834,#
11.085947036743164,-10.944771766662598,3.036492109298706,-2.899080991744995,4.202629089355469,3.121429443359375,#
10.109675407409668,-11.98564910888672,2.9551358222961426,-2.935731887817383,4.459184646606445,3.445178270339966,#
10.109675407409668,-11.98564910888672,2.9551358222961426,-2.783020257949829,4.5520339012146,3.713951349258423,#
8.049454689025879,-11.255837440490724,2.548356056213379,-2.438502311706543,4.213624477386475,4.158648014068604,#
6.943971633911133,-9.848857879638672,1.3208380937576294,-2.4262852668762207,3.568569660186768,4.378552913665772,#
6.984649658203125,-9.96131992340088,-0.607776939868927,-2.519134044647217,3.2875797748565674,4.4652934074401855,#
6.321837425231934,-10.387242317199709,-1.0863415002822876,-2.5069169998168945,3.08722186088562,4.610674858093262,#
6.321837425231934,-10.387242317199709,-1.0863415002822876,-2.3468751907348637,3.191066026687622,4.646103858947754,#
5.414957523345947,-10.26760196685791,-1.1724830865859983,-1.9156169891357424,3.398754119873047,4.558142185211182,#
4.620540142059326,-9.657432556152344,-1.6055840253829956,-1.525896430015564,3.489159345626831,4.352897644042969,#
3.8596229553222656,-8.429913520812988,-2.5938196182250977,-1.456259846687317,3.544135808944702,4.330906867980957,#
2.816352128982544,-7.307680606842041,-2.172683000564575,-1.4892456531524658,3.485494375228882,4.293034553527832,#
1.9669002294540403,-7.147361278533936,-2.6536402702331543,-1.2840008735656738,3.2680327892303467,4.109780311584473,left
1.9669002294540403,-7.147361278533936,-2.6536402702331543,-1.087308049201965,3.023693799972534,3.953403472900391,left
1.6510475873947144,-6.33380126953125,-3.3786656856536865,-0.4874561131000519,2.629086494445801,3.636984348297119,left
1.2179466485977173,-4.823930263519287,-4.366901397705078,0.0574196390807628,2.4177334308624268,3.159301996231079,left
0.3469592928886413,-4.012763977050781,-5.156532764434815,0.2199050188064575,2.279681921005249,2.950392246246338,left
-0.3996013700962066,-3.079562902450561,-6.252446174621582,0.3811686933040619,2.0756590366363525,2.5875487327575684,left
-0.7585247755050659,-1.9860427379608157,-7.042076587677002,0.1331647038459777,1.9901403188705444,2.2955639362335205,left
-0.7585247755050659,-1.9860427379608157,-7.042076587677002,-0.0977355539798736,1.8924047946929927,2.161177635192871,left
-0.7130610942840576,-1.5720844268798828,-7.446464061737059,-0.5448757410049438,1.6236319541931152,1.9095085859298704,left
-0.5886343717575073,-2.0865414142608643,-8.02791976928711,-0.873511552810669,1.3915101289749146,1.650509238243103,left
-0.7585247755050659,-2.0961124897003174,-8.405985832214355,-0.943148136138916,1.280335783958435,1.51734459400177,left
-0.9092726111412048,-2.3497519493103027,-8.350951194763184,-0.910162389278412,1.077534556388855,1.187487006187439,left
-0.9092726111412048,-2.3497519493103027,-8.350951194763184,-0.8356390595436096,0.9358179569244384,1.0250016450881958,left
-1.0456634759902954,-2.1511476039886475,-8.645268440246582,-0.7085827589035034,0.6096255779266357,0.7550071477890015,left
-0.8398807048797607,-2.179861307144165,-8.590232849121094,-0.7879929542541504,0.2944283783435821,0.4385882914066314,left
-0.787238597869873,-2.7876384258270264,-8.645268440246582,-0.8075400590896606,0.1881409436464309,0.3066453039646148,left
-1.1820544004440308,-2.857030153274536,-8.216952323913574,-1.0188932418823242,-0.0024433890357613,0.0781884491443634,left
-1.4093725681304932,-3.1130621433258057,-8.140382766723633,-1.290109395980835,-0.2015795856714248,-0.1710372269153595,left
-1.4093725681304932,-3.1130621433258057,-8.140382766723633,-1.3756279945373535,-0.287098228931427,-0.3347443044185638,left
-1.8376877307891848,-3.720839262008667,-7.740781307220459,-1.397618532180786,-0.4043808877468109,-0.6499415040016174,left
-2.062613010406494,-3.304487943649292,-7.211967468261719,-1.320651650428772,-0.574196457862854,-0.9822423458099364,left
-2.053041696548462,-3.73758864402771,-7.1641106605529785,-1.2986613512039185,-0.6426112651824951,-1.142284274101257,left
-1.3208380937576294,-4.347758769989014,-7.769494533538818,-1.3524158000946045,-0.7476770281791687,-1.435490965843201,left
-1.3208380937576294,-4.347758769989014,-7.769494533538818,-1.4391560554504397,-0.8502993583679199,-1.7726787328720093,left
-0.2201396822929382,-5.484349250793457,-8.49691390991211,-1.665169596672058,-0.8942803740501404,-1.9461593627929688,left
1.0121639966964722,-6.647261142730713,-9.183652877807615,-1.8496454954147337,-0.966360330581665,-2.2466959953308105,left
1.7706886529922483,-7.15932559967041,-9.119047164916992,-1.839871883392334,-1.011563062667847,-2.3847475051879883,left
3.0005996227264404,-7.496713638305664,-9.40379238128662,-1.7531315088272097,-1.1459494829177856,-2.6022093296051025,left
4.175475597381592,-8.097311973571777,-9.645467758178713,-1.6761648654937744,-1.4171655178070068,-2.813562393188477,left
4.175475597381592,-8.097311973571777,-9.645467758178713,-1.5906461477279663,-1.582094430923462,-2.928401470184326,left
5.113461971282959,-8.195417404174805,-10.370492935180664,-1.4025052785873413,-1.9449377059936523,-3.18862247467041,left
6.08494758605957,-8.343771934509277,-11.085947036743164,-1.3243167400360107,-2.3969645500183105,-3.4867160320281982,left
7.365108013153076,-9.05683422088623,-11.095518112182615,-1.2778924703598022,-2.648633480072021,-3.6675267219543457,left
8.00638484954834,-9.040083885192873,-10.834701538085938,-1.0176715850830078,-3.23749041557312,-4.004714488983154,left
9.042476654052734,-9.468399047851562,-10.506884574890137,-0.6267292499542236,-3.827568769454956,-4.273487091064453,left
9.042476654052734,-9.468399047851562,-10.506884574890137,-0.4752391576766968,-4.121997356414795,-4.394435405731201,left
10.076176643371582,-9.327221870422363,-10.619346618652344,-0.1954711079597473,-4.727957725524902,-4.621670246124268,left
10.62173843383789,-9.18126106262207,-10.463812828063965,0.1160609796643257,-5.396224498748779,-4.903882026672363,left
13.165310859680176,-10.746166229248049,-10.332208633422852,0.2467822879552841,-5.752959251403809,-5.078583717346191,left
15.340386390686035,-13.17248821258545,-9.597611427307127,1.1276240348815918,-6.63502311706543,-5.373012542724609,left
15.340386390686035,-13.17248821258545,-9.597611427307127,1.7763437032699585,-7.028408050537109,-5.432875633239746,left
15.88594913482666,-15.151352882385254,-7.573283672332764,2.81234073638916,-8.017980575561523,-5.149442195892334,left
17.80259895324707,-17.3814640045166,-6.774080753326416,2.9149630069732666,-8.77054500579834,-4.385883331298828,left
17.685352325439453,-17.883955001831055,-5.733203411102295,2.434837102890014,-9.198138236999512,-3.968063592910767,left
16.003198623657227,-18.443878173828125,-5.678168296813965,1.1129636764526367,-9.535325050354004,-3.0505709648132324,left
14.045868873596191,-17.848064422607422,-4.280759334564209,0.129499614238739,-10.10830020904541,-2.434837102890014,left
14.045868873596191,-17.848064422607422,-4.280759334564209,-0.2968717515468597,-10.201148986816406,-2.1306352615356445,left
13.964512825012209,-15.71127223968506,-5.625525951385498,-0.63283771276474,-10.04599380493164,-1.637070655822754,left
13.198810577392578,-16.153945922851562,-5.931807041168213,-0.4911211729049682,-9.635504722595217,-1.0531005859375,left
11.638689994812012,-15.321243286132812,-6.221338748931885,-0.0867403075098991,-9.41804313659668,-0.8466342687606812,left
10.791629791259766,-13.653446197509766,-6.039484024047852,1.123958945274353,-8.771766662597656,-0.6035171151161194,left
9.81057357788086,-12.148360252380373,-4.926821708679199,2.090319395065308,-8.218338966369629,-0.2883199155330658,left
9.81057357788086,-12.148360252380373,-4.926821708679199,2.4091813564300537,-8.069292068481445,-0.0293206684291362,left
10.114461898803713,-10.016355514526367,-4.043870449066162,2.2137105464935303,-7.860382556915283,0.6084038615226746,left
11.43529987335205,-7.527820110321045,-1.730010747909546,1.8435369729995728,-7.5317463874816895,0.6658235192298889,left
11.44965648651123,-6.317051887512207,0.2560320198535919,1.0836429595947266,-6.339372634887695,0.6426112651824951,left
10.286745071411133,-6.927221298217773,1.9884356260299685,0.6108472347259521,-5.065145492553711,0.6132906079292297,left
10.286745071411133,-6.927221298217773,1.9884356260299685,0.5754181146621704,-4.512938976287842,0.53143709897995,left
9.298508644104004,-7.769494533538818,2.926422357559204,0.8270871639251709,-3.606442213058472,0.3555130958557129,left
8.5160551071167,-6.812366485595703,3.321237564086914,1.211920976638794,-2.800123691558838,0.2980934381484985,left
7.587640762329102,-5.209175109863281,3.390629768371582,1.220472812652588,-2.389634370803833,0.2712161839008331,left
6.0466628074646,-4.118047714233398,2.7349963188171387,0.8502993583679199,-1.666391372680664,0.2724378705024719,left
4.493720531463623,-4.328616142272949,3.022134780883789,0.1930277347564697,-0.8955020904541016,0.3017585575580597,left
4.493720531463623,-4.328616142272949,3.022134780883789,-0.1331647038459777,-0.6462763547897339,0.2675510942935943,#
3.493520975112915,-5.938986301422119,3.445664882659912,-0.6291726231575012,-0.2724378705024719,0.2480039745569229,#
1.9046868085861208,-7.195217609405518,4.374079704284668,-0.7941014170646667,0.1685938388109207,0.1502684205770492,#
-0.064606212079525,-8.300702095031738,4.1036906242370605,-0.7403469085693359,0.3371876776218414,0.0794101431965828,#
-1.8544375896453855,-9.695716857910156,3.739981651306152,-0.5375455617904663,0.6377245187759399,-0.1575985848903656,#
-1.8544375896453855,-9.695716857910156,3.739981651306152,-0.4251496791839599,0.7818844318389893,-0.3054236173629761,#
-3.44327163696289,-10.389636039733888,2.995814085006714,0.0342074446380138,0.893058717250824,-0.63283771276474,#
-3.9840497970581055,-11.375478744506836,2.816352128982544,0.365286648273468,0.7965447902679443,-0.8258654475212097,#
-3.689732551574707,-10.841878890991213,2.8833510875701904,0.4471401870250702,0.7183563709259033,-0.8661814332008362,#
-3.1657044887542725,-10.62173843383789,2.543570280075073,0.5363238453865051,0.6963658928871155,-0.873511552810669,#
-2.926422357559204,-10.817951202392578,2.4885356426239014,0.5888567566871643,0.8160918951034546,-0.8026533126831055,#
-2.926422357559204,-10.817951202392578,2.4885356426239014,0.5803048610687256,0.8991671204566956,-0.7452336549758911,#
-2.739781856536865,-10.796415328979492,2.203789472579956,0.624285876750946,0.9626952409744264,-0.624285876750946,#
-2.543570280075073,-10.82273769378662,2.266003131866455,0.6646018028259277,0.929709494113922,-0.4984513521194458,#
-2.304288148880005,-10.439885139465332,1.998006820678711,0.6511631608009338,0.8747332096099854,-0.4300364553928375,#
-2.122433662414551,-9.607183456420898,1.7204395532608032,0.471574068069458,0.7415685653686523,-0.2602209150791168,#
-2.043470621109009,-9.439685821533203,1.1772687435150146,0.1429382413625717,0.63283771276474,-0.0733016654849052,#
-2.043470621109009,-9.439685821533203,1.1772687435150146,0.0061084721237421,0.5974085927009583,-0.0048867780715227,#
-2.03629207611084,-9.57607650756836,0.9284151792526244,-0.1869192570447921,0.5717529654502869,0.0574196390807628,#
-2.029113531112671,-9.456435203552246,0.6125625967979431,-0.2064663618803024,0.5632011890411377,0.0757450610399246,#
-2.043470621109009,-9.236295700073242,0.4833501875400543,-0.1869192570447921,0.5558710098266602,0.0818535313010215,#
-2.194218397140503,-9.257830619812012,0.2703889608383178,-0.1185043603181839,0.5680879354476929,0.0904053896665573,#
-2.194218397140503,-9.257830619812012,0.2703889608383178,-0.0806318372488021,0.5717529654502869,0.0708582773804664,#
-2.0961124897003174,-9.236295700073242,0.3828516006469726,-0.0195471122860908,0.4740174412727356,-0.0183254163712263,#
-1.758724570274353,-8.793622970581055,0.4067798554897308,-0.0830752253532409,0.4092676639556885,-0.1026223376393318,#
-1.6582260131835938,-8.635696411132812,0.5575276613235474,-0.1673721522092819,0.3994940817356109,-0.1514901220798492,#
-1.832902193069458,-8.791230201721191,0.430708110332489,-0.3200839459896087,0.4874561131000519,-0.2553341388702392,#
-2.139183282852173,-8.815157890319824,0.6819544434547424,-0.4434750974178314,0.5094466209411621,-0.3836120665073395,#
-2.139183282852173,-8.815157890319824,0.6819544434547424,-0.4263713657855987,0.471574068069458,-0.439810037612915,#
-2.2995026111602783,-9.54496955871582,0.3756731450557709,-0.2773246467113495,0.3665083348751068,-0.517998456954956,#
-2.029113531112671,-9.985249519348145,0.2416750937700271,-0.0244338884949684,0.1979145109653473,-0.6096255779266357,#
-1.703689694404602,-9.743573188781738,0.3254238963127136,0.0537545569241046,0.1404948681592941,-0.6584933400154114,#
-1.5361920595169067,-9.83689308166504,0.696311354637146,0.1258345395326614,0.1038440242409706,-0.7000309228897095,#
-1.5361920595169067,-9.83689308166504,0.696311354637146,0.0830752253532409,0.0488677769899368,-0.6474980711936951,#
-1.294516921043396,-9.812965393066406,1.0145567655563354,0.0525328628718853,-0.0012216945178806,-0.6303943395614624,#
-1.1676974296569824,-9.990034103393556,1.0791629552841189,-0.0500894747674465,-0.0109952501952648,-0.5693095922470093,#
-0.607776939868927,-9.588040351867676,1.0528419017791748,-0.1221694499254226,-0.0171037223190069,-0.5387672781944275,#
-0.0693918615579605,-8.669197082519531,1.7515461444854736,-0.5900784730911255,0.0904053896665573,-0.3591781854629516,#
-0.3278167247772217,-10.112068176269531,1.7012970447540283,-1.1984822750091553,0.5937435030937195,-0.0061084721237421,#
-0.3278167247772217,-10.112068176269531,1.7012970447540283,-1.4183871746063232,0.7794410586357117,0.1136175915598869,#
-0.7082754969596863,-11.265408515930176,1.7324036359786987,-1.4342693090438845,1.0824213027954102,0.2809897363185882,#
-1.0169496536254885,-11.406585693359377,1.1413763761520386,-1.1386191844940186,1.1312891244888306,0.2309002727270126,#
-1.3519448041915894,-10.999805450439451,0.4354937374591827,-1.0091196298599243,1.0970816612243652,0.2186833024024963,#
-1.3854442834854126,-10.767702102661133,-0.4331009089946747,-0.7660024166107178,1.0005677938461304,0.2162399291992187,#
-1.5433706045150757,-10.296316146850586,-1.0767701864242554,-0.6536065340042114,0.8283088207244873,0.1392731666564941,#
-1.5433706045150757,-10.296316146850586,-1.0767701864242554,-0.6450546979904175,0.7623373866081238,0.1539334952831268,#
-1.8735800981521609,-10.269994735717772,-1.4524433612823486,-0.712247908115387,0.7330166697502136,0.1710372269153595,#
-2.09850549697876,-10.573883056640623,-1.5314064025878906,-0.7317950129508972,0.6352811455726624,0.1600419729948043,#
-1.9046868085861208,-10.506884574890137,-1.1724830865859983,-0.7513421177864075,0.5632011890411377,0.1856975704431533,#
-1.856830358505249,-10.84427261352539,-0.8901299238204956,-0.7330166697502136,0.5351021885871887,0.2638860046863556,#
-1.856830358505249,-10.84427261352539,-0.8901299238204956,-0.684148907661438,0.5680879354476929,0.258999228477478,#
-2.0195422172546387,-10.985447883605955,-0.7920243144035339,-0.499673068523407,0.5534276366233826,0.2284568697214126,#
-2.0027925968170166,-11.02134132385254,-0.6747759580612183,-0.3261924386024475,0.448361873626709,0.2064663618803024,#
-2.0003998279571533,-11.090733528137209,-0.8327022790908813,-0.2528907656669616,0.4361449182033539,0.1893626451492309,#
-1.983649969100952,-10.942378044128418,-0.9379864931106568,-0.1392731666564941,0.3555130958557129,0.1600419729948043,#
-1.868794322013855,-10.82034397125244,-1.105484127998352,-0.0280989725142717,0.3090887069702148,0.1563768982887268,#
-1.868794322013855,-10.82034397125244,-1.105484127998352,0.0183254163712263,0.2980934381484985,0.1539334952831268,#
-1.8759729862213133,-10.542776107788086,-1.3016955852508545,0.1221694499254226,0.2748812437057495,0.1563768982887268,#
-1.94297194480896,-10.234102249145508,-1.442872166633606,0.1918060332536697,0.2370087206363678,0.1575985848903656,#
-1.741974949836731,-9.90389347076416,-1.5026925802230835,0.2174616158008575,0.2015795856714248,0.1575985848903656,#
-1.9118653535842896,-9.710074424743652,-1.5409778356552124,0.2394521236419677,0.1673721522092819,0.1270562261343002,#
-1.9118653535842896,-9.710074424743652,-1.5409778356552124,0.1710372269153595,0.130721315741539,0.1417165547609329,#
-1.8783657550811768,-9.860822677612305,-1.5385849475860596,0.1429382413625717,0.0867403075098991,0.1356080919504165,#
-1.730010747909546,-9.767501831054688,-1.37587308883667,0.1172826737165451,0.0464243926107883,0.1123958900570869,#
-1.765903115272522,-9.77707290649414,-1.2873386144638062,0.100178949534893,0.0769667476415634,0.1014006435871124,#
-1.8616160154342647,-9.937392234802246,-1.105484127998352,0.0965138673782348,0.0769667476415634,0.0928487852215766,#
-1.7874385118484497,-9.980463027954102,-1.0863415002822876,0.1221694499254226,0.0549762547016143,0.0745233595371246,#
-1.7874385118484497,-9.980463027954102,-1.0863415002822876,0.1331647038459777,0.0500894747674465,0.0635281130671501,#
-1.739582061767578,-9.82971477508545,-1.0408778190612793,0.1148392781615257,0.0659715011715889,0.0500894747674465,#
-1.8281164169311523,-9.80817985534668,-1.0097711086273191,0.1038440242409706,0.0733016654849052,0.0488677769899368,#
-1.777867317199707,-9.736394882202148,-1.1006983518600464,0.0977355539798736,0.0610847249627113,0.0476460866630077,#
-1.871187210083008,-9.841679573059082,-1.1150553226470947,0.0745233595371246,0.0305423624813556,0.0342074446380138,#
-1.8257235288619995,-9.812965393066406,-1.093519926071167,0.0647498071193695,0.0061084721237421,0.0171037223190069,#
-1.8257235288619995,-9.812965393066406,-1.093519926071167,0.0623064190149307,-0.0024433890357613,0.0109952501952648,#
-1.8544375896453855,-9.889535903930664,-0.9762716889381408,0.0537545569241046,-0.0146603342145681,0.0024433890357613,#
-1.856830358505249,-9.913464546203612,-0.8207381367683411,-0.0012216945178806,-0.0232121963053941,-0.0024433890357613,#
-1.7515461444854736,-10.26520824432373,-0.7274181246757507,-0.0048867780715227,-0.0268772784620523,-0.0085518611595034,#
-1.6965112686157229,-10.37767219543457,-0.9810572862625122,0.1710372269153595,-0.0342074446380138,-0.0598630309104919,#
-1.6965112686157229,-10.37767219543457,-0.9810572862625122,0.2932066619396209,-0.0329857505857944,-0.0818535313010215,#
-1.65583336353302,-9.90389347076416,-0.97148597240448,0.310310423374176,-0.0574196390807628,-0.0757450610399246,#
-1.423729419708252,-9.667003631591797,-0.760917603969574,0.130721315741539,-0.0623064190149307,-0.0366508327424526,#
-1.3304094076156616,-10.001997947692873,-0.5838487148284912,0.0146603342145681,-0.0354291386902332,-0.0122169442474842,#
-1.392622709274292,-10.169495582580566,-0.5216353535652161,-0.0513111688196659,0.0439810007810592,0.0171037223190069,#
-1.6917256116867063,-9.899106979370115,-0.6005984544754028,0.0745233595371246,0.0769667476415634,-0.0024433890357613,#
-1.6917256116867063,-9.899106979370115,-0.6005984544754028,0.1185043603181839,0.0733016654849052,-0.0122169442474842,#
-1.5385849475860596,-9.81535816192627,-0.7345964908599854,0.0952921733260154,0.0647498071193695,-0.0244338884949684,#
-1.6534404754638672,-9.664610862731934,-0.8374879360198975,0.0427593067288398,0.0720799788832664,-0.0293206684291362,#
-1.761117458343506,-9.69332504272461,-0.8853443264961243,0.0232121963053941,0.069636583328247,-0.0256555844098329,#
-1.7443678379058838,-9.80817985534668,-0.8350951075553894,-0.0048867780715227,0.0452026948332786,-0.0207688063383102,#
-1.7443678379058838,-9.820144653320312,-0.7728817462921143,0.003665083553642,0.040315918624401,-0.0293206684291362,#
-1.7443678379058838,-9.820144653320312,-0.7728817462921143,0.0012216945178806,0.0452026948332786,-0.031764056533575,#
-1.6677974462509155,-9.89432144165039,-0.6508477926254272,-0.0171037223190069,0.0464243926107883,-0.0183254163712263,#
-1.6797614097595217,-9.923035621643066,-0.5575276613235474,0.0122169442474842,0.0476460866630077,-0.0232121963053941,#
-1.6247265338897705,-10.006784439086914,-0.7322037816047668,0.0195471122860908,0.0366508327424526,-0.0195471122860908,#
-1.6247265338897705,-9.918249130249023,-0.7417750358581543,-0.003665083553642,0.0513111688196659,-0.0012216945178806,#
-1.6247265338897705,-9.918249130249023,-0.7417750358581543,-0.0183254163712263,0.0708582773804664,0.0012216945178806,#
-1.6654045581817627,-9.96371364593506,-0.8470591902732849,-0.0366508327424526,0.0733016654849052,0.0146603342145681,#
-1.7084753513336182,-9.966106414794922,-0.8853443264961243,-0.0525328628718853,0.0684148892760276,0.0183254163712263,#
-1.7156537771224976,-10.064212799072266,-0.9044869542121888,-0.0378725305199623,0.0781884491443634,0.0146603342145681,#
-1.6917256116867063,-9.999605178833008,-0.7417750358581543,-0.0329857505857944,0.069636583328247,0.0219905003905296,#
-1.65583336353302,-9.89432144165039,-0.6532405614852905,-0.0390942245721817,0.0610847249627113,0.0244338884949684,#
-1.65583336353302,-9.89432144165039,-0.6532405614852905,-0.0244338884949684,0.0537545569241046,0.0219905003905296,#
-1.6319050788879397,-9.975677490234377,-0.7130610942840576,-0.0171037223190069,0.0415376126766204,0.0195471122860908,#
-1.7084753513336182,-9.81057357788086,-0.7537391781806946,-0.0280989725142717,0.0586413368582725,0.0207688063383102,#
-1.6941183805465698,-9.90867805480957,-0.8733802437782288,-0.040315918624401,0.0537545569241046,0.0183254163712263,#
-1.6773687601089478,-9.930214881896973,-0.7776673436164856,-0.0378725305199623,0.031764056533575,0.0122169442474842,#
-1.6773687601089478,-9.930214881896973,-0.7776673436164856,-0.0232121963053941,0.0415376126766204,-0.0024433890357613,#
-1.65583336353302,-9.93260669708252,-0.8470591902732849,-0.0244338884949684,0.0427593067288398,-0.0012216945178806,#
-1.7347965240478516,-9.937392234802246,-0.8255237936973572,-0.0342074446380138,0.031764056533575,0.0012216945178806,#
-1.782652735710144,-10.01874828338623,-0.8662018179893494,-0.0439810007810592,0.0195471122860908,-0.007330167107284,#
-1.643869161605835,-10.00439167022705,-0.8374879360198975,-0.0390942245721817,0.0195471122860908,-0.0122169442474842,#
-1.6223337650299072,-10.03549861907959,-0.8135597109794617,-0.0293206684291362,-0.0012216945178806,-0.0048867780715227,#
-1.6223337650299072,-10.03549861907959,-0.8135597109794617,-0.0232121963053941,-0.003665083553642,-0.0024433890357613,#
-1.641476273536682,-9.987641334533691,-0.9284151792526244,-0.0232121963053941,-0.0109952501952648,-0.0024433890357613,#
-1.7252250909805298,-9.891928672790527,-0.8733802437782288,-0.0293206684291362,-0.0048867780715227,0.0122169442474842,#
-1.765903115272522,-9.877571105957031,-0.8877372145652771,-0.0280989725142717,-0.0085518611595034,0.0134386392310261,#
-1.7635102272033691,-9.856036186218262,-1.0336993932724,-0.0232121963053941,-0.0305423624813556,0.0097735561430454,#
-1.7994027137756348,-9.76989459991455,-1.0671988725662231,-0.0427593067288398,-0.0342074446380138,0.0097735561430454,#
-1.7994027137756348,-9.76989459991455,-1.0671988725662231,-0.0439810007810592,-0.0342074446380138,0.0122169442474842,#
-1.9094725847244265,-9.906286239624023,-1.0887343883514404,-0.0464243926107883,-0.0488677769899368,0.0097735561430454,#
-1.940579175949097,-9.860822677612305,-1.1437692642211914,-0.0464243926107883,-0.0720799788832664,0.0024433890357613,#
-1.954936146736145,-9.868000030517578,-1.1772687435150146,-0.0549762547016143,-0.0794101431965828,-0.0012216945178806,#
-1.864008903503418,-9.93978500366211,-1.0815558433532717,-0.0720799788832664,-0.0928487852215766,0.0048867780715227,#
-1.864008903503418,-9.93978500366211,-1.0815558433532717,-0.0598630309104919,-0.0965138673782348,0.0061084721237421,#
-1.8927226066589355,-10.011569023132324,-1.0360921621322632,-0.0452026948332786,-0.1246128380298614,0.003665083553642,#
-1.7706886529922483,-9.973284721374512,-0.9834501147270204,-0.0268772784620523,-0.1343863904476165,-0.0012216945178806,#
-1.7850456237792969,-9.891928672790527,-0.8566305041313171,-0.0109952501952648,-0.1270562261343002,0.0012216945178806,#
-1.741974949836731,-9.956534385681152,-0.7561319470405579,-0.0061084721237421,-0.1368297785520553,0.0048867780715227,#
-1.6989041566848757,-10.011569023132324,-0.7824530005455017,-0.0012216945178806,-0.1356080919504165,0.0122169442474842,#
-1.6989041566848757,-10.011569023132324,-0.7824530005455017,0.0048867780715227,-0.1356080919504165,0.0219905003905296,#
-1.710868239402771,-9.975677490234377,-1.00259268283844,0.0183254163712263,-0.1392731666564941,0.0232121963053941,#
-1.7371891736984253,-9.901500701904297,-1.0193424224853516,0.0244338884949684,-0.1331647038459777,0.0085518611595034,#
-1.6917256116867063,-9.844072341918944,-1.0528419017791748,0.0122169442474842,-0.130721315741539,0.0024433890357613,#
-1.6917256116867063,-9.824929237365724,-1.1150553226470947,-0.0195471122860908,-0.1356080919504165,0.0061084721237421,#
-1.6917256116867063,-9.824929237365724,-1.1150553226470947,-0.0476460866630077,-0.1197260618209838,0.0024433890357613,#
-1.648654818534851,-9.834501266479492,-1.0504491329193115,-0.0427593067288398,-0.1209477484226226,-0.003665083553642,#
-1.7132610082626345,-9.858428955078123,-0.8781659603118896,-0.0280989725142717,-0.128277912735939,-0.003665083553642,#
-1.7012970447540283,-9.707681655883787,-0.97148597240448,-0.0513111688196659,-0.128277912735939,0.0085518611595034,#
-1.722832441329956,-9.81057357788086,-1.0217353105545044,-0.0635281130671501,-0.1270562261343002,0.0061084721237421,#
-1.7443678379058838,-9.923035621643066,-0.9643075466156006,-0.0733016654849052,-0.100178949534893,-0.003665083553642,#
-1.7443678379058838,-9.923035621643066,-0.9643075466156006,-0.0745233595371246,-0.0904053896665573,-0.007330167107284,#
-1.741974949836731,-9.913464546203612,-1.0001999139785769,-0.0745233595371246,-0.0916270837187767,-0.007330167107284,#
-1.7371891736984253,-9.966106414794922,-1.0336993932724,-0.0757450610399246,-0.1026223376393318,-0.0109952501952648,#
-1.648654818534851,-10.05224895477295,-0.916451096534729,-0.0769667476415634,-0.1050657257437706,-0.0122169442474842,#
-1.5457634925842283,-10.059426307678224,-0.902094066143036,-0.0525328628718853,-0.0879620015621185,-0.0134386392310261,#
-1.4931212663650513,-10.12881851196289,-0.9308080077171326,-0.0342074446380138,-0.0830752253532409,-0.0097735561430454,#
-1.4931212663650513,-10.12881851196289,-0.9308080077171326,-0.0244338884949684,-0.0818535313010215,-0.0085518611595034,#
-1.490728497505188,-10.01874828338623,-0.8662018179893494,-0.0207688063383102,-0.0623064190149307,-0.0061084721237421,#
-1.495514154434204,-10.00439167022705,-0.9906285405158995,-0.0146603342145681,-0.0244338884949684,-0.0012216945178806,#
-1.581655740737915,-10.05703353881836,-1.0289137363433838,-0.0171037223190069,-0.0207688063383102,0.0012216945178806,#
-1.5481561422348022,-9.966106414794922,-1.038485050201416,-0.0122169442474842,-0.0146603342145681,0.0024433890357613,#
-1.5481561422348022,-9.966106414794922,-1.038485050201416,-0.0024433890357613,-0.0085518611595034,0.0012216945178806,#
-1.6151552200317385,-9.973284721374512,-1.0456634759902954,0.0048867780715227,0.0012216945178806,0.0085518611595034,#
-1.6055840253829956,-9.980463027954102,-1.0217353105545044,0.0207688063383102,0.007330167107284,0.0061084721237421,#
-1.703689694404602,-9.731609344482422,-0.935593605041504,0.0207688063383102,0.0097735561430454,0.003665083553642,#
-1.7515461444854736,-9.877571105957031,-0.9619146585464478,0.0219905003905296,0.0097735561430454,0.0012216945178806,#
-1.8305093050003047,-9.743573188781738,-0.8925228118896484,0.007330167107284,0.0293206684291362,-0.007330167107284,#
-1.8305093050003047,-9.743573188781738,-0.8925228118896484,0.0061084721237421,0.0305423624813556,-0.0061084721237421,#
-1.8089739084243772,-9.846465110778809,-0.9475577473640442,-0.0207688063383102,0.0256555844098329,-0.0085518611595034,#
-1.7084753513336182,-9.889535903930664,-0.9332008361816406,-0.0183254163712263,0.0378725305199623,-0.0122169442474842,#
-1.758724570274353,-9.896714210510254,-1.038485050201416,-0.0171037223190069,0.0439810007810592,-0.0122169442474842,#
-1.8233308792114256,-9.978070259094238,-0.9858429431915284,-0.0134386392310261,0.0439810007810592,-0.0085518611595034,#
-1.8951154947280884,-10.016355514526367,-0.9475577473640442,-0.0012216945178806,0.0464243926107883,-0.0061084721237421,#
-1.8951154947280884,-10.016355514526367,-0.9475577473640442,0.0109952501952648,0.040315918624401,-0.003665083553642,#
-1.887937068939209,-9.889535903930664,-0.97148597240448,0.0158820282667875,0.0109952501952648,-0.0012216945178806,#
-1.7898313999176023,-9.832108497619627,-0.973878800868988,0.0207688063383102,0.0207688063383102,-0.0134386392310261,#
-1.9238293170928955,-9.82971477508545,-0.9523434042930604,0.0207688063383102,0.0268772784620523,-0.0158820282667875,#
-1.9046868085861208,-9.76989459991455,-1.007378339767456,0.0134386392310261,0.0183254163712263,-0.0195471122860908,#
-1.9046868085861208,-9.76989459991455,-1.007378339767456,0.003665083553642,0.0146603342145681,-0.0207688063383102,#
-1.88075852394104,-9.68375301361084,-0.9427721500396729,-0.0024433890357613,0.0122169442474842,-0.0305423624813556,#
-1.813759446144104,-9.91585636138916,-0.9810572862625122,-0.0048867780715227,-0.003665083553642,-0.0329857505857944,#
-1.8305093050003047,-10.040283203125,-0.8901299238204956,0.0024433890357613,-0.0195471122860908,-0.031764056533575,#
-1.8185452222824097,-10.021141052246094,-0.9786643981933594,0.0366508327424526,-0.0293206684291362,-0.0244338884949684,#
-1.852044701576233,-10.001997947692873,-0.8111668825149536,0.0452026948332786,-0.0464243926107883,-0.0134386392310261,#
-1.852044701576233,-10.001997947692873,-0.8111668825149536,0.0513111688196659,-0.0452026948332786,-0.0134386392310261,#
-1.7994027137756348,-10.219745635986328,-0.6197410225868225,0.0916270837187767,-0.0488677769899368,-0.0012216945178806,#
-1.7874385118484497,-10.432705879211426,-0.7513462901115417,0.178367406129837,-0.1062874197959899,0.0427593067288398,#
-1.8305093050003047,-10.262815475463867,-0.973878800868988,0.2333436459302902,-0.1392731666564941,0.0500894747674465,#
-1.856830358505249,-9.96371364593506,-0.8303093910217285,0.287098228931427,-0.1502684205770492,0.0329857505857944,#
-1.856830358505249,-9.96371364593506,-0.8303093910217285,0.2944283783435821,-0.1417165547609329,0.0378725305199623,#
-1.9286150932312007,-9.846465110778809,-0.9284151792526244,0.261442631483078,-0.155155211687088,0.0476460866630077,#
-1.835294842720032,-9.702895164489746,-0.8422735333442688,0.2089097648859024,-0.1490467190742492,0.0390942245721817,#
-1.8903299570083616,-9.489934921264648,-0.8470591902732849,0.1808107793331146,-0.1331647038459777,0.0305423624813556,#
-1.9621145725250244,-9.384650230407717,-0.8327022790908813,0.1172826737165451,-0.1062874197959899,0.0122169442474842,#
-1.9334007501602173,-9.633503913879396,-0.8231310248374939,0.0537545569241046,-0.1136175915598869,-0.0048867780715227,#
-1.9334007501602173,-9.633503913879396,-0.8231310248374939,0.031764056533575,-0.1185043603181839,-0.0158820282667875,#
-1.8855443000793457,-9.698110580444336,-0.7896314859390259,-0.0048867780715227,-0.1136175915598869,-0.0415376126766204,#
-1.9118653535842896,-9.803394317626951,-0.8398807048797607,-0.0268772784620523,-0.123391143977642,-0.0427593067288398,#
-1.7730815410614014,-10.03549861907959,-0.605384111404419,-0.0232121963053941,-0.1270562261343002,-0.0452026948332786,#
-1.7324036359786987,-9.975677490234377,-0.5168496966362,-0.0232121963053941,-0.1270562261343002,-0.0525328628718853,#
-1.7994027137756348,-9.918249130249023,-0.4785645008087158,-0.007330167107284,-0.1160609796643257,-0.0378725305199623,#
-1.7994027137756348,-9.918249130249023,-0.4785645008087158,-0.0158820282667875,-0.1087308079004287,-0.031764056533575,#
-1.7539390325546265,-10.006784439086914,-0.5623133182525635,-0.0244338884949684,-0.0891837030649185,-0.0293206684291362,#
-1.6893328428268433,-9.96371364593506,-0.5670989155769348,-0.0146603342145681,-0.0623064190149307,-0.0207688063383102,#
-1.66301167011261,-10.054640769958496,-0.5000999569892883,-0.0109952501952648,-0.0525328628718853,-0.0219905003905296,#
-1.6462620496749878,-10.155139923095703,-0.5455635190010071,0.0085518611595034,-0.0561979450285434,-0.0219905003905296,#
-1.6462620496749878,-10.155139923095703,-0.5455635190010071,0.0256555844098329,-0.0671931952238082,-0.0195471122860908,#
-1.6127625703811646,-10.28913688659668,-0.605384111404419,0.0830752253532409,-0.0769667476415634,-0.0109952501952648,#
-1.5170495510101318,-10.372885704040527,-0.5670989155769348,0.1380514800548553,-0.069636583328247,-0.0012216945178806,#
-1.5720844268798828,-10.25802993774414,-0.4953142702579498,0.1710372269153595,-0.0659715011715889,0.007330167107284,#
-1.5649060010910034,-10.157532691955566,-0.4498506784439087,0.2064663618803024,-0.0586413368582725,0.0171037223190069,#
-1.6007983684539795,-9.970890998840332,-0.3230310678482055,0.2186833024024963,-0.0488677769899368,0.0244338884949684,#
-1.6007983684539795,-9.970890998840332,-0.3230310678482055,0.2199050188064575,-0.0439810007810592,0.0256555844098329,#
-1.6271194219589231,-9.884750366210938,-0.4402793645858764,0.1979145109653473,-0.040315918624401,0.0232121963053941,#
-1.557727575302124,-9.824929237365724,-0.4426721632480621,0.1747023165225982,-0.0268772784620523,0.0134386392310261,#
-1.6199408769607544,-9.822537422180176,-0.4402793645858764,0.1673721522092819,-0.0122169442474842,0.0097735561430454,#
-1.6390833854675293,-9.81535816192627,-0.3493521213531494,0.1380514800548553,-0.003665083553642,0.0097735561430454,#
-1.6390833854675293,-9.81535816192627,-0.3493521213531494,0.1087308079004287,-0.0061084721237421,0.007330167107284,#
-1.7371891736984253,-9.772287368774414,-0.3948157429695129,0.0904053896665573,-0.0048867780715227,0.0024433890357613,#
-1.6917256116867063,-9.72921657562256,-0.2751745879650116,0.0574196390807628,0.0171037223190069,-0.0024433890357613,#
-1.7084753513336182,-9.628718376159668,-0.12921242415905,0.0342074446380138,0.0329857505857944,-0.0048867780715227,#
-1.7922240495681765,-9.868000030517578,-0.1196411252021789,-0.0134386392310261,0.0574196390807628,-0.007330167107284,#
-1.7347965240478516,-10.186245918273926,-0.0454636327922344,-0.0232121963053941,0.0488677769899368,-0.0012216945178806,#
-1.7347965240478516,-10.186245918273926,-0.0454636327922344,-0.0097735561430454,0.0549762547016143,-0.0012216945178806,#
-1.8161523342132568,-10.494919776916504,0.2488535493612289,0.0378725305199623,0.0891837030649185,0.0183254163712263,#
-2.0410776138305664,-10.652846336364746,0.3062812983989715,0.0378725305199623,0.1380514800548553,0.0806318372488021,#
-2.423929214477539,-11.073983192443848,0.3421736359596252,0.0476460866630077,0.1490467190742492,0.1026223376393318,#
-2.7086753845214844,-11.279767036437988,0.3014956414699554,0.069636583328247,0.1087308079004287,0.1209477484226226,#
-3.13220477104187,-11.32522964477539,0.5240281224250793,0.0794101431965828,0.0439810007810592,0.0904053896665573,#
-3.13220477104187,-11.32522964477539,0.5240281224250793,0.0720799788832664,0.0024433890357613,0.0745233595371246,#
-3.280559778213501,-11.509476661682127,0.7417750358581543,0.0916270837187767,-0.1209477484226226,0.0305423624813556,#
-3.38105845451355,-11.607583045959473,0.7322037816047668,0.2174616158008575,-0.2382304221391677,-0.0378725305199623,#
-3.263810157775879,-11.564510345458984,1.007378339767456,0.3176405727863312,-0.2993151545524597,-0.0745233595371246,#
-3.352344274520874,-11.619546890258787,1.2323036193847656,0.5057815313339233,-0.388498842716217,-0.0855186134576797,#
-3.352344274520874,-11.619546890258787,1.2323036193847656,0.5949652194976807,-0.4300364553928375,-0.0781884491443634,#
-3.046063184738159,-11.638689994812012,0.6556334495544434,0.7513421177864075,-0.5717529654502869,-0.0610847249627113,#
-2.775674343109131,-11.34197998046875,0.5407779216766357,0.7928797006607056,-0.6511631608009338,-0.0647498071193695,#
-2.514856576919556,-11.294123649597168,0.5670989155769348,0.8674030900001526,-0.6853706240653992,-0.0610847249627113,#
-2.1056838035583496,-10.841878890991213,0.2751745879650116,1.0335536003112793,-0.8344173431396484,-0.1099525094032287,#
-1.574477195739746,-9.942178726196287,0.4977070987224579,1.123958945274353,-0.9443698525428772,-0.1661504507064819,#
-1.574477195739746,-9.942178726196287,0.4977070987224579,1.1300673484802246,-0.9443698525428772,-0.1881409436464309,#
-1.196411371231079,-9.176474571228027,0.5982056856155396,1.1166287660598757,-0.9309312105178832,-0.1942494213581085,right
-0.3852444589138031,-8.843873023986816,0.4713860750198364,1.0384403467178345,-1.0066763162612915,-0.1918060332536697,right
0.5024927258491516,-8.262415885925293,0.6436693072319031,0.9785772562026978,-0.9736905097961426,-0.1771456897258758,right
1.0121639966964722,-7.609175682067871,0.8638089299201965,0.7989881634712219,-0.8087617754936218,-0.1771456897258758,right
1.6175479888916016,-7.324430465698242,1.1629117727279663,0.5118899941444397,-0.6377245187759399,-0.1478250324726104,right
1.6175479888916016,-7.324430465698242,1.1629117727279663,0.3139754831790924,-0.5192201733589172,-0.129499614238739,right
2.328216552734375,-7.46799898147583,1.3399806022644043,-0.0500894747674465,-0.2956500649452209,-0.0879620015621185,right
3.2135608196258545,-7.800601959228516,1.3902300596237185,-0.333522617816925,-0.0867403075098991,-0.0342074446380138,right
4.180261135101318,-7.917850017547607,1.5433706045150757,-0.4508052766323089,0.031764056533575,-0.0085518611595034,right
4.721039295196533,-8.01356315612793,1.6175479888916016,-0.6890356540679932,0.3432961404323578,0.0427593067288398,right
4.721039295196533,-8.01356315612793,1.6175479888916016,-0.8124268054962158,0.4935645759105682,0.0427593067288398,right
5.300102710723877,-7.676175117492676,1.6654045581817627,-1.0763128995895386,0.8160918951034546,0.0439810007810592,right
5.781059265136719,-7.843672752380371,1.497907042503357,-1.2363548278808594,1.2106993198394775,-0.0158820282667875,right
6.092126369476318,-7.451249599456787,1.4883356094360352,-1.2925527095794678,1.4391560554504397,-0.0574196390807628,right
6.577868938446045,-7.377072334289551,2.1822540760040283,-1.3841798305511477,1.863084077835083,-0.1624853760004043,right
7.494320392608643,-7.401000499725342,2.108076810836792,-1.4672551155090332,2.250361204147339,-0.3029802441596985,right
7.494320392608643,-7.401000499725342,2.108076810836792,-1.5307831764221191,2.5069169998168945,-0.3628432750701904,right
8.659625053405762,-8.264809608459473,1.0791629552841189,-1.5430002212524414,3.252150535583496,-0.4520269632339477,right
9.14297580718994,-8.994620323181152,-0.5120640397071838,-1.3487507104873655,4.223397731781006,-0.5790832042694092,right
9.394222259521484,-8.815157890319824,-2.076970100402832,-1.2155860662460327,4.694972038269043,-0.6218425035476685,right
9.999605178833008,-8.585447311401367,-3.620340585708618,-0.966360330581665,5.544049739837647,-0.7183563709259033,right
9.999605178833008,-8.585447311401367,-3.620340585708618,-0.9822423458099364,6.479867458343506,-0.7000309228897095,right
10.80120086669922,-8.061419486999512,-5.333601474761963,-1.060430884361267,6.907460689544678,-0.7330166697502136,right
10.717452049255373,-8.319844245910645,-6.601797103881836,-1.4232741594314575,7.228766441345215,-0.6817055344581604,right
11.576476097106934,-9.626325607299805,-7.611568450927734,-1.5552170276641846,7.172568321228027,-0.5839699506759644,right
13.115059852600098,-11.212766647338867,-8.973085403442383,-1.714037299156189,7.212884426116943,-0.4031591713428497,right
13.919049263000488,-12.629318237304688,-10.995020866394045,-1.4794719219207764,7.23731803894043,-0.0928487852215766,right
13.919049263000488,-12.629318237304688,-10.995020866394045,-1.3157649040222168,7.200666904449463,0.0598630309104919,right
14.64407444000244,-12.67717456817627,-12.722638130187988,-0.9358179569244384,7.000309467315674,0.155155211687088,right
15.208780288696287,-12.294322967529297,-13.2777738571167,-0.6169556975364685,6.824385166168213,0.261442631483078,right
15.6227388381958,-11.942577362060549,-12.813565254211426,-0.4153760969638824,6.729093074798584,0.3017585575580597,right
16.34776496887207,-10.310672760009766,-13.610376358032228,-0.1221694499254226,6.582489967346191,0.3542913794517517,right
17.001005172729492,-9.844072341918944,-13.95972728729248,-0.1966928243637085,6.481089115142822,0.4679089784622192,right
17.001005172729492,-9.844072341918944,-13.95972728729248,-0.1869192570447921,6.547060966491699,0.5070031881332397,right
16.986648559570312,-10.571491241455078,-13.694124221801758,-0.1514901220798492,6.814611434936523,0.6658235192298889,right
16.247264862060547,-12.294322967529297,-12.148360252380373,0.2492256760597229,7.09315824508667,0.7085827589035034,right
16.350156784057617,-12.978670120239258,-10.8370943069458,0.3090887069702148,7.239761829376221,0.7965447902679443,right
16.36451530456543,-13.07199001312256,-11.217552185058594,0.439810037612915,7.696675300598144,1.022558331489563,right
16.36451530456543,-13.07199001312256,-11.217552185058594,0.4214845895767212,8.030198097229004,1.1826002597808838,right
15.976876258850098,-12.325429916381836,-12.378071784973145,0.3542913794517517,8.578739166259766,1.50757098197937,right
15.089139938354492,-10.813164710998535,-15.51506233215332,0.95658677816391,8.972124099731445,1.7274760007858276,right
13.198810577392578,-9.535398483276367,-20.14756774902344,1.382958173751831,9.073525428771973,1.806886076927185,right
11.459227561950684,-6.230910301208496,-21.46840476989746,1.1227372884750366,9.560980796813965,1.8911830186843872,right
9.879963874816896,-6.120840072631836,-15.48395538330078,-0.5729747414588928,10.783897399902344,2.175837755203247,right
9.879963874816896,-6.120840072631836,-15.48395538330078,-1.1141853332519531,12.234047889709473,2.8966376781463623,right
10.360921859741213,-8.73619556427002,-10.336994171142578,-1.5405566692352295,14.009170532226562,4.173308372497559,right
10.834701538085938,-13.01934814453125,-5.699703216552734,-1.6480658054351809,13.411762237548828,3.994940757751465,right
8.645268440246582,-6.661618232727051,-7.714460372924805,-1.5417784452438354,12.657977104187012,3.448843479156494,right
7.695317268371582,-0.9834501147270204,-11.832507133483888,-1.6175235509872437,10.27445125579834,3.324230670928955,right
4.967499732971191,-5.046462535858154,-15.017354011535645,-2.8184492588043213,7.597718238830566,2.698723077774048,right
4.967499732971191,-5.046462535858154,-15.017354011535645,-2.6132044792175293,6.132905960083008,2.458049297332764,right
3.383451223373413,-2.3880369663238525,-16.500904083251953,-1.211920976638794,3.0908870697021484,2.025569438934326,right
1.1150553226470947,-4.371686935424805,-12.739388465881348,0.4129327237606048,0.3713951408863067,1.0885297060012815,right
0.1651047617197036,-4.192224979400635,-8.800802230834961,1.044548749923706,-0.4727957546710968,0.6035171151161194,right
-0.8327022790908813,-6.582655429840088,-6.51326322555542,1.2216944694519043,-1.180156946182251,0.0989572554826736,right
-0.8327022790908813,-6.582655429840088,-6.51326322555542,1.142284274101257,-1.2192511558532717,0.0256555844098329,#
-0.2656033039093017,-6.314659118652344,-6.697510242462158,0.2101314514875412,-0.7024743556976318,0.0122169442474842,#
0.0215354058891534,-5.7547383308410645,-7.762316703796387,-0.9810206294059752,0.2101314514875412,-0.0598630309104919,#
-1.2610174417495728,-6.197411060333252,-6.020341873168945,-1.4550381898880005,0.5680879354476929,-0.1441599577665329,#
-2.7254250049591064,-6.647261142730713,-4.448256969451904,-1.5662122964859009,0.873511552810669,-0.2370087206363678,#
-3.627518892288208,-5.45563554763794,-4.407578945159912,-0.9834640026092528,0.6865922808647156,-0.3139754831790924,#
-3.627518892288208,-5.45563554763794,-4.407578945159912,-0.7000309228897095,0.5351021885871887,-0.342074453830719,#
-3.720839262008667,-5.716453552246094,-4.953143119812012,-0.123391143977642,0.258999228477478,-0.4019374847412109,#
-3.1728827953338623,-7.168896198272705,-5.101497650146484,0.4324798583984375,0.0684148892760276,-0.445918470621109,#
-3.086741209030152,-8.126025199890137,-5.304887294769287,0.6169556975364685,0.0305423624813556,-0.4776825606822967,#
-2.7828526496887207,-8.343771934509277,-5.158926010131836,0.6621583700180054,-0.0342074446380138,-0.5326588153839111,#
-2.7828526496887207,-8.343771934509277,-5.158926010131836,0.2846547961235046,0.0171037223190069,-0.6120689511299133,#
-2.8115665912628174,-8.403593063354492,-5.14456844329834,0.0109952501952648,0.0549762547016143,-0.652384877204895,#
-2.538784980773926,-8.638089179992676,-5.797809600830078,-0.5070031881332397,0.123391143977642,-0.707361102104187,#
-2.816352128982544,-9.018548011779783,-6.0538411140441895,-0.601073682308197,0.1331647038459777,-0.7293516397476196,#
-2.9240293502807617,-9.274580955505373,-5.070391178131104,-0.4312581717967987,0.1722589135169983,-0.7012526392936707,#
-2.641676187515259,-9.15493869781494,-4.500899314880371,-0.155155211687088,0.2406738102436065,-0.574196457862854,#
-2.641676187515259,-9.15493869781494,-4.500899314880371,-0.0354291386902332,0.2211267054080963,-0.5302154421806335,#
-2.543570280075073,-9.463613510131836,-4.828716278076172,0.0965138673782348,0.1649287492036819,-0.4471401870250702,#
-2.249253273010254,-9.611968994140623,-5.237888813018799,0.3078669905662536,0.1429382413625717,-0.3579564988613128,#
-2.3186452388763428,-9.456435203552246,-5.010570526123047,0.3848337531089782,0.1441599577665329,-0.3200839459896087,#
-2.304288148880005,-9.221939086914062,-4.761716842651367,0.416597843170166,0.1490467190742492,-0.2455605864524841,#
-2.3401806354522705,-9.19561767578125,-4.589433670043945,0.3677300214767456,0.1062874197959899,-0.2211267054080963,#
-2.3401806354522705,-9.19561767578125,-4.589433670043945,0.3506263196468353,0.0818535313010215,-0.2186833024024963,#
-2.400001049041748,-9.083154678344728,-4.962714195251465,0.2785463333129883,0.0427593067288398,-0.2272351831197738,#
-2.289931058883667,-8.879764556884766,-4.804787635803223,0.2125748395919799,-0.0048867780715227,-0.2394521236419677,#
-2.3018953800201416,-9.078369140625,-4.421936511993408,0.2125748395919799,-0.0232121963053941,-0.2577775418758392,#
-2.122433662414551,-9.11426067352295,-4.161118507385254,0.2406738102436065,-0.0928487852215766,-0.3029802441596985,#
-2.122433662414551,-9.11426067352295,-4.161118507385254,0.2480039745569229,-0.1331647038459777,-0.3237490355968475,#
-1.7754744291305542,-9.097511291503906,-3.797409296035767,0.2663294076919555,-0.2137965410947799,-0.3701734542846679,#
-1.5242280960083008,-8.994620323181152,-3.622733592987061,0.2736595571041107,-0.2809897363185882,-0.4141544103622436,#
-1.241874933242798,-8.772088050842285,-3.5054850578308105,0.2797680497169494,-0.3127537965774536,-0.439810037612915,#
-1.1509476900100708,-8.685946464538574,-3.1800613403320312,0.3127537965774536,-0.3261924386024475,-0.4837909936904907,#
-0.9308080077171326,-8.621339797973633,-2.799602746963501,0.4019374847412109,-0.3530696928501129,-0.5387672781944275,#
-0.9308080077171326,-8.621339797973633,-2.799602746963501,0.4544703662395477,-0.3542913794517517,-0.5632011890411377,#
-1.0097711086273191,-8.434700012207031,-2.557927370071411,0.4898994863033294,-0.3591781854629516,-0.6401678919792175,#
-0.7920243144035339,-8.23130989074707,-2.4741785526275635,0.4752391576766968,-0.4031591713428497,-0.7440119385719299,#
-0.6005984544754028,-8.22413158416748,-2.249253273010254,0.463022232055664,-0.4471401870250702,-0.8148701786994934,#
-0.5312066078186035,-8.327022552490234,-1.7252250909805298,0.4508052766323089,-0.6120689511299133,-0.9822423458099364,#
-0.4331009089946747,-7.83410120010376,-1.7706886529922483,0.4141544103622436,-0.8148701786994934,-1.1508362293243408,#
-0.4331009089946747,-7.83410120010376,-1.7706886529922483,0.3738385140895843,-0.9443698525428772,-1.2314679622650146,#
0.0717846825718879,-7.027719974517822,-1.6797614097595217,0.287098228931427,-1.244906663894653,-1.40617036819458,#
0.6843472719192505,-6.527620315551758,-2.569891452789306,0.3579564988613128,-1.6211885213851929,-1.593089580535889,#
1.117448091506958,-6.230910301208496,-3.160918712615967,0.4080459475517273,-1.839871883392334,-1.666391372680664,#
1.902293920516968,-5.699703216552734,-3.646661758422852,0.5338804721832275,-2.175837755203247,-1.8704142570495603,#
1.902293920516968,-5.699703216552734,-3.646661758422852,0.6768187284469604,-2.3932995796203613,-2.1733944416046143,#
2.651247262954712,-6.443871021270752,-4.362115383148193,0.8148701786994934,-2.918627977371216,-2.473931312561035,#
3.649054527282715,-6.618547439575195,-4.299902439117432,0.8759549260139465,-2.91374135017395,-2.469044685363769,#
4.529613494873047,-6.63769006729126,-3.687339782714844,1.0750911235809326,-2.9320666790008545,-2.687727928161621,#
4.804787635803223,-7.649853706359863,-3.0963122844696045,1.7091505527496338,-2.719491958618164,-3.083556890487671,#
4.804787635803223,-7.613961696624756,-3.1250264644622803,2.0817673206329346,-2.719491958618164,-3.2851364612579346,#
5.1804609298706055,-7.161717891693115,-3.13938307762146,2.2295923233032227,-2.786684989929199,-3.4231879711151123,#
6.527620315551758,-8.590232849121094,-0.5623133182525635,2.4372804164886475,-2.951613664627075,-3.578343152999878,#
6.0610198974609375,-8.69791030883789,-0.7274181246757507,2.522799253463745,-2.786684989929199,-3.4464001655578613,#
5.996413230895996,-7.927421569824219,-1.459621787071228,2.578997135162353,-2.875868797302246,-3.491602897644043,#
5.996413230895996,-7.927421569824219,-1.459621787071228,2.8074538707733154,-3.2130565643310547,-3.702955961227417,#
7.424928665161133,-8.415557861328125,-0.8949156999588013,2.9577224254608154,-3.303461790084839,-3.483051061630249,#
8.408378601074219,-8.288737297058105,0.0239282250404357,2.828222751617432,-3.3840935230255127,-3.3205654621124268,#
8.341379165649414,-7.850851535797119,-0.6484549045562744,2.779355049133301,-3.403640985488892,-3.2680327892303467,#
8.941977500915527,-7.331608772277832,-0.7824530005455017,2.748812675476074,-3.453730344772339,-3.309570550918579,#
10.021141052246094,-7.5326056480407715,1.4859429597854614,2.6840627193450928,-3.467169046401977,-3.2008395195007324,#
10.021141052246094,-7.5326056480407715,1.4859429597854614,2.6510770320892334,-3.590559959411621,-3.0102550983428955,#
10.839487075805664,-8.918049812316895,2.7804601192474365,2.7084968090057373,-3.4793858528137207,-2.8734254837036133,#
10.626524925231934,-8.319844245910645,1.6462620496749878,2.813562393188477,-3.625989198684693,-2.696279764175415,#
10.63370418548584,-6.759723663330078,0.4043869972229004,2.8331096172332764,-3.775036096572876,-2.6364166736602783,#
11.645866394042969,-6.486942291259766,1.129412293434143,2.7317090034484863,-3.811686754226685,-2.563115119934082,#
11.880364418029783,-6.32662296295166,0.2081755697727203,2.5179123878479004,-3.5807864665985107,-2.315110921859741,#
11.880364418029783,-6.32662296295166,0.2081755697727203,2.230814218521118,-3.347442865371704,-2.036564826965332,#
11.782258987426758,-5.515456199645996,-0.3684946894645691,2.100092887878418,-3.1800708770751958,-1.9363857507705688,#
11.645866394042969,-4.984249591827393,-0.5862415432929993,1.7567967176437378,-2.7732462882995605,-1.7726787328720093,#
11.277373313903809,-5.166104316711426,-0.7034898400306702,1.6175235509872437,-2.3590919971466064,-1.4599249362945557,#
10.52841854095459,-5.288137912750244,-0.3421736359596252,1.6089717149734497,-2.15506911277771,-1.2766708135604858,#
10.52841854095459,-5.288137912750244,-0.3421736359596252,1.6114150285720823,-1.8142162561416624,-1.1300673484802246,#
10.224532127380373,-5.501099109649658,-0.2273181527853012,1.6883817911148071,-1.7763437032699585,-1.099524974822998,#
12.794422149658203,-7.099504470825195,1.6869399547576904,2.0145742893218994,-1.93272066116333,-0.9468132257461548,#
13.899906158447266,-3.864408254623413,2.7900311946868896,2.294342279434204,-1.7421363592147827,-0.8063183426856995,#
11.968899726867676,-3.644268989562988,4.3142595291137695,2.403073072433472,-1.1532796621322632,-0.7977665066719055,#
9.951749801635742,-3.428915023803711,4.070191383361816,3.216721534729004,0.2626643180847168,-0.5448757410049438,#
9.951749801635742,-3.428915023803711,4.070191383361816,2.0414514541625977,0.3775035738945007,0.2638860046863556,#
9.968499183654783,-4.335794448852539,2.675175428390503,1.189930438995361,-0.069636583328247,0.4654656052589416,#
10.234102249145508,-5.166104316711426,0.9906285405158995,0.4385882914066314,-0.7195780277252197,0.0830752253532409,#
9.966106414794922,-4.1347975730896,-0.3110669553279876,0.5619794726371765,-0.5986303091049194,-0.2186833024024963,#
9.351150512695312,-3.479164123535156,-1.459621787071228,0.6792621612548828,-0.6193991303443909,-0.3029802441596985,#
8.95394229888916,-4.158725738525391,-2.1439690589904785,0.5008947253227234,-0.6022953391075134,-0.416597843170166,#
8.95394229888916,-4.158725738525391,-2.1439690589904785,0.3787252902984619,-0.5302154421806335,-0.2993151545524597,#
8.652446746826172,-4.651647090911865,-2.514856576919556,0.3384093642234802,-0.4508052766323089,-0.2321219593286514,#
8.695517539978027,-4.831109046936035,-2.7014968395233154,0.4532486498355865,-0.4508052766323089,-0.2333436459302902,#
8.551947593688965,-4.503292083740234,-3.10109806060791,0.6511631608009338,-0.5607577562332153,-0.3298574984073639,#
8.334200859069824,-4.342973232269287,-3.1250264644622803,0.7293516397476196,-0.5961868762969971,-0.3445178270339966,#
8.334200859069824,-4.342973232269287,-3.1250264644622803,0.7427902817726135,-0.5167768001556396,-0.3127537965774536,#
8.228917121887207,-4.192224979400635,-2.864208698272705,0.6743753552436829,-0.4789042472839355,-0.2638860046863556,#
8.118846893310547,-4.268795490264893,-2.885744333267212,0.4202629029750824,-0.448361873626709,-0.1930277347564697,#
8.147561073303223,-4.366901397705078,-2.830709218978882,0.2199050188064575,-0.4141544103622436,-0.0635281130671501,#
8.283952713012695,-4.697111129760742,-2.569891452789306,0.1356080919504165,-0.3542913794517517,-0.0012216945178806,#
8.264809608459473,-4.364508152008057,-2.7589242458343506,0.1111741960048675,-0.258999228477478,-0.0024433890357613,#
8.264809608459473,-4.364508152008057,-2.7589242458343506,0.0329857505857944,-0.1575985848903656,-0.0134386392310261,#
7.960920810699463,-4.1659040451049805,-2.971885919570923,-0.0207688063383102,-0.0830752253532409,0.0232121963053941,#
7.917850017547607,-4.240081787109375,-2.995814085006714,-0.0488677769899368,0.0146603342145681,0.0952921733260154,#
8.312665939331055,-4.436293125152588,-2.7828526496887207,-0.1502684205770492,0.0452026948332786,0.155155211687088,#
8.298308372497559,-4.421936511993408,-2.770888566970825,-0.175924003124237,0.031764056533575,0.123391143977642,#
8.298308372497559,-4.421936511993408,-2.770888566970825,-0.1905843466520309,0.0452026948332786,0.128277912735939,#
8.133204460144043,-4.591826438903809,-3.091526985168457,-0.1649287492036819,0.0219905003905296,0.1722589135169983,#
8.111669540405273,-4.534398555755615,-2.931207656860352,-0.1343863904476165,0.0305423624813556,0.1075091138482093,#
8.413164138793945,-4.426721572875977,-2.328216552734375,0.0537545569241046,0.0378725305199623,-0.0464243926107883,#
8.673982620239258,-4.49132776260376,-2.3234307765960693,0.175924003124237,0.0244338884949684,-0.0745233595371246,#
8.666803359985352,-4.383650779724121,-2.2707886695861816,0.3347443044185638,-0.0219905003905296,-0.0965138673782348,#
8.666803359985352,-4.383650779724121,-2.2707886695861816,0.3298574984073639,-0.0427593067288398,-0.1270562261343002,#
8.678767204284668,-4.460221290588379,-2.2755744457244877,0.282211422920227,-0.0598630309104919,-0.1356080919504165,#
8.922836303710938,-4.484149932861328,-2.251646041870117,0.1685938388109207,-0.0830752253532409,-0.1453816443681717,#
8.860621452331543,-4.417150497436523,-2.364108800888061,0.1514901220798492,-0.0940704718232154,-0.1270562261343002,#
8.554340362548828,-4.3142595291137695,-2.4981069564819336,0.152711808681488,-0.0757450610399246,-0.0989572554826736,#
8.499305725097656,-4.264009952545166,-2.4287149906158447,0.1258345395326614,-0.0500894747674465,-0.0842969194054603,#
8.499305725097656,-4.264009952545166,-2.4287149906158447,0.0867403075098991,-0.0574196390807628,-0.0733016654849052,#
8.638089179992676,-4.146761417388916,-2.407179594039917,0.0684148892760276,-0.0647498071193695,-0.0610847249627113,#
8.578269004821777,-4.170689582824707,-2.6608188152313232,0.0635281130671501,-0.0830752253532409,-0.0390942245721817,#
8.405985832214355,-4.153940200805664,-2.414358139038086,0.0928487852215766,-0.0525328628718853,-0.0464243926107883,#
8.532805442810059,-3.945764780044556,-2.5052852630615234,0.1099525094032287,-0.0012216945178806,-0.0842969194054603,#
8.532805442810059,-3.945764780044556,-2.5052852630615234,0.0390942245721817,-0.0476460866630077,-0.0183254163712263,#
8.437092781066895,-4.077369689941406,-2.691925525665283,-0.0244338884949684,-0.0549762547016143,-0.0012216945178806,#
8.315058708190918,-4.206582069396973,-2.675175428390503,-0.0305423624813556,-0.0085518611595034,-0.0109952501952648,#
8.542377471923828,-4.130012035369873,-2.4598214626312256,0.0965138673782348,0.0928487852215766,-0.1087308079004287,#
8.764908790588379,-4.031906127929688,-2.4741785526275635,0.0842969194054603,0.0195471122860908,-0.0916270837187767,#
8.63330364227295,-4.098905563354492,-2.5746772289276123,0.0085518611595034,-0.0354291386902332,-0.0916270837187767,#
8.63330364227295,-4.098905563354492,-2.5746772289276123,-0.0757450610399246,-0.003665083553642,-0.0769667476415634,#
8.57348346710205,-4.158725738525391,-2.4885356426239014,-0.1123958900570869,0.0232121963053941,-0.0830752253532409,#
8.803194999694824,-4.366901397705078,-2.560320377349853,-0.1710372269153595,0.0427593067288398,-0.100178949534893,#
8.776873588562012,-4.266402721405029,-2.297109842300415,-0.1881409436464309,0.0085518611595034,-0.0561979450285434,#
8.839086532592773,-4.3070807456970215,-2.328216552734375,-0.2064663618803024,0.0219905003905296,-0.0464243926107883,#
8.903693199157715,-4.481756687164307,-2.3401806354522705,-0.2406738102436065,0.0329857505857944,-0.0720799788832664,#
8.903693199157715,-4.481756687164307,-2.3401806354522705,-0.2858764827251434,0.0415376126766204,-0.0452026948332786,#
8.83669376373291,-4.5391845703125,-2.3617160320281982,-0.2687727808952331,0.0415376126766204,-0.0390942245721817,#
8.74337387084961,-4.49132776260376,-2.390429735183716,-0.1881409436464309,0.031764056533575,0.0415376126766204,#
8.63330364227295,-4.409972190856934,-2.376072883605957,-0.1478250324726104,0.0488677769899368,-0.0012216945178806,#
8.659625053405762,-4.524827480316162,-2.3162522315979004,-0.1172826737165451,0.0488677769899368,-0.0097735561430454,#
8.659625053405762,-4.524827480316162,-2.3162522315979004,-0.0623064190149307,0.0244338884949684,-0.0134386392310261,#
8.654839515686035,-4.548755645751953,-2.3569302558898926,-0.0598630309104919,0.0195471122860908,-0.0158820282667875,#
8.48734188079834,-4.677968502044678,-2.423929214477539,-0.0158820282667875,0.0207688063383102,-0.031764056533575,#
8.568697929382324,-4.2376885414123535,-2.359323024749756,0.1490467190742492,0.0879620015621185,-0.1148392781615257,#
8.760124206542969,-4.273581027984619,-2.3306093215942383,0.1600419729948043,0.0256555844098329,-0.1062874197959899,#
8.578269004821777,-4.565505504608154,-2.3569302558898926,-0.0097735561430454,-0.0525328628718853,-0.0256555844098329,#
8.578269004821777,-4.565505504608154,-2.3569302558898926,-0.0659715011715889,0.0097735561430454,-0.007330167107284,#
8.551947593688965,-4.474578380584717,-2.328216552734375,-0.0537545569241046,0.0268772784620523,0.0183254163712263,#
8.57348346710205,-4.438685894012451,-2.47896409034729,-0.0122169442474842,0.0183254163712263,-0.0122169442474842,#
8.650053977966309,-4.3070807456970215,-2.426322221755981,0.0329857505857944,0.0122169442474842,-0.0097735561430454,#
8.628519058227539,-4.292723655700684,-2.3473589420318604,0.031764056533575,0.0158820282667875,-0.0048867780715227,#
8.628519058227539,-4.292723655700684,-2.3473589420318604,0.0109952501952648,0.0061084721237421,-0.0097735561430454,#
8.645268440246582,-4.266402721405029,-2.4717857837677,0.0329857505857944,-0.0048867780715227,-0.003665083553642,#
8.650053977966309,-4.218546390533447,-2.4646072387695312,0.0378725305199623,-0.0024433890357613,-0.0061084721237421,#
8.671588897705078,-4.189832210540772,-2.383251428604126,0.0134386392310261,-0.003665083553642,-0.0109952501952648,#
8.647661209106445,-4.271188735961914,-2.337787628173828,0.0024433890357613,0.0012216945178806,-0.0134386392310261,#
8.693124771118164,-4.19701099395752,-2.392822742462158,0.0097735561430454,0.0024433890357613,-0.0012216945178806,#
8.693124771118164,-4.19701099395752,-2.392822742462158,0.0171037223190069,-0.0048867780715227,-0.0061084721237421,#
8.654839515686035,-4.199403762817383,-2.390429735183716,0.0134386392310261,-0.0109952501952648,-0.0097735561430454,#
8.666803359985352,-4.240081787109375,-2.3569302558898926,0.0048867780715227,-0.0109952501952648,-0.0085518611595034,#
8.62612533569336,-4.3070807456970215,-2.383251428604126,-0.0085518611595034,-0.003665083553642,-0.0061084721237421,#
8.650053977966309,-4.23529577255249,-2.431107759475708,-0.003665083553642,-0.0061084721237421,-0.0061084721237421,#
8.654839515686035,-4.34536600112915,-2.321038007736206,0.0097735561430454,-0.0134386392310261,-0.0085518611595034,#
8.654839515686035,-4.34536600112915,-2.321038007736206,0.0146603342145681,-0.0122169442474842,-0.0122169442474842,#
8.642874717712402,-4.321437358856201,-2.3545374870300293,0.0134386392310261,-0.0134386392310261,-0.0122169442474842,#
8.640481948852539,-4.304687976837158,-2.3617160320281982,0.0219905003905296,-0.0183254163712263,-0.0134386392310261,#
8.62612533569336,-4.378865718841553,-2.3066811561584477,0.0256555844098329,-0.0158820282667875,-0.007330167107284,#
8.638089179992676,-4.273581027984619,-2.3306093215942383,0.0268772784620523,-0.0109952501952648,-0.0109952501952648,#
8.638089179992676,-4.273581027984619,-2.3306093215942383,0.0342074446380138,-0.0158820282667875,-0.0183254163712263,#
8.669197082519531,-4.271188735961914,-2.426322221755981,0.0342074446380138,-0.0195471122860908,-0.0207688063383102,#
8.652446746826172,-4.240081787109375,-2.4430718421936035,0.0415376126766204,-0.0207688063383102,-0.0134386392310261,#
8.662017822265625,-4.261617183685303,-2.3569302558898926,0.0439810007810592,-0.0183254163712263,-0.0195471122860908,#
8.707481384277344,-4.242474555969238,-2.3712873458862305,0.0464243926107883,-0.0183254163712263,-0.0207688063383102,#
8.606983184814453,-4.29033088684082,-2.414358139038086,0.0427593067288398,-0.0207688063383102,-0.0256555844098329,#
8.606983184814453,-4.29033088684082,-2.414358139038086,0.0476460866630077,-0.0183254163712263,-0.0268772784620523,#
8.61894702911377,-4.187439441680908,-2.3736801147460938,0.0513111688196659,-0.0195471122860908,-0.031764056533575,#
8.693124771118164,-4.175475597381592,-2.311466693878174,0.0452026948332786,-0.0195471122860908,-0.0342074446380138,#
8.671588897705078,-4.25922441482544,-2.426322221755981,0.0427593067288398,-0.0244338884949684,-0.0366508327424526,#
8.614161491394043,-4.208974838256836,-2.400001049041748,0.0464243926107883,-0.0219905003905296,-0.0390942245721817,#
8.58066177368164,-4.230510234832764,-2.380858421325684,0.0488677769899368,-0.0158820282667875,-0.0427593067288398,#
8.58066177368164,-4.230510234832764,-2.380858421325684,0.0390942245721817,-0.0207688063383102,-0.0415376126766204,#
8.630911827087402,-4.295116424560547,-2.4095723628997803,0.0378725305199623,-0.0195471122860908,-0.0342074446380138,#
8.638089179992676,-4.283152580261231,-2.383251428604126,0.031764056533575,-0.0171037223190069,-0.0244338884949684,#
8.640481948852539,-4.168296813964844,-2.4095723628997803,0.031764056533575,-0.0109952501952648,-0.0219905003905296,#
8.678767204284668,-4.187439441680908,-2.4430718421936035,0.0305423624813556,-0.0122169442474842,-0.0244338884949684,#
8.678767204284668,-4.187439441680908,-2.4430718421936035,0.0256555844098329,-0.0244338884949684,-0.0232121963053941,#
8.662017822265625,-4.201796531677246,-2.47896409034729,0.0183254163712263,-0.0207688063383102,-0.0256555844098329,#
8.645268440246582,-4.295116424560547,-2.3258235454559326,0.0012216945178806,-0.0134386392310261,-0.0195471122860908,#
8.662017822265625,-4.268795490264893,-2.3617160320281982,0.003665083553642,-0.0146603342145681,-0.0232121963053941,#
8.484949111938477,-4.252045631408691,-2.352144718170166,0.0134386392310261,-0.0146603342145681,-0.0195471122860908,#
8.609375953674316,-4.321437358856201,-2.280359983444214,0.0207688063383102,-0.003665083553642,-0.0183254163712263,#
8.609375953674316,-4.321437358856201,-2.280359983444214,0.0244338884949684,-0.0134386392310261,-0.0207688063383102,#
8.638089179992676,-4.228117942810059,-2.3186452388763428,0.0280989725142717,-0.0158820282667875,-0.0219905003905296,#
8.673982620239258,-4.254438400268555,-2.400001049041748,0.0280989725142717,-0.0122169442474842,-0.0158820282667875,#
8.695517539978027,-4.3310089111328125,-2.390429735183716,0.0256555844098329,-0.0122169442474842,-0.0146603342145681,#
8.676375389099121,-4.328616142272949,-2.400001049041748,0.0268772784620523,-0.0012216945178806,-0.0171037223190069,#
8.676375389099121,-4.328616142272949,-2.400001049041748,0.0293206684291362,-0.0122169442474842,-0.0195471122860908,#
8.650053977966309,-4.29033088684082,-2.337787628173828,0.0280989725142717,-0.0122169442474842,-0.0183254163712263,#
8.650053977966309,-4.340579986572266,-2.3497519493103027,0.031764056533575,-0.0146603342145681,-0.0158820282667875,#
8.616554260253906,-4.316651821136475,-2.3401806354522705,0.0378725305199623,-0.0097735561430454,-0.0195471122860908,#
8.654839515686035,-4.25922441482544,-2.328216552734375,0.0415376126766204,-0.0109952501952648,-0.0207688063383102,#
8.62612533569336,-4.271188735961914,-2.3018953800201416,0.0513111688196659,-0.0146603342145681,-0.0158820282667875,#
8.62612533569336,-4.271188735961914,-2.3018953800201416,0.0549762547016143,-0.0109952501952648,-0.0146603342145681,#
8.709875106811523,-4.304687976837158,-2.376072883605957,0.0549762547016143,-0.0171037223190069,-0.0171037223190069,#
8.659625053405762,-4.261617183685303,-2.359323024749756,0.0635281130671501,-0.0219905003905296,-0.0232121963053941,#
8.650053977966309,-4.256831645965576,-2.3784656524658203,0.0708582773804664,-0.0134386392310261,-0.0219905003905296,#
8.70508861541748,-4.256831645965576,-2.380858421325684,0.0684148892760276,-0.0183254163712263,-0.0195471122860908,#
8.73619556427002,-4.228117942810059,-2.400001049041748,0.0720799788832664,-0.0219905003905296,-0.0256555844098329,#
8.73619556427002,-4.228117942810059,-2.400001049041748,0.0842969194054603,-0.0158820282667875,-0.0256555844098329,#
8.678767204284668,-4.223331928253174,-2.3545374870300293,0.0830752253532409,-0.0195471122860908,-0.0280989725142717,#
8.638089179992676,-4.156332969665527,-2.390429735183716,0.0818535313010215,-0.0232121963053941,-0.0342074446380138,#
8.630911827087402,-4.240081787109375,-2.352144718170166,0.0794101431965828,-0.0171037223190069,-0.031764056533575,#
8.717053413391113,-4.323830604553223,-2.311466693878174,0.0781884491443634,-0.0158820282667875,-0.0329857505857944,#
8.717053413391113,-4.323830604553223,-2.311466693878174,0.0720799788832664,-0.0195471122860908,-0.0354291386902332,#
8.709875106811523,-4.220939159393311,-2.2995026111602783,0.0745233595371246,-0.0207688063383102,-0.0354291386902332,#
8.657232284545898,-4.07258415222168,-2.376072883605957,0.0891837030649185,-0.0158820282667875,-0.0390942245721817,#
8.72662353515625,-4.151546955108643,-2.364108800888061,0.0830752253532409,-0.0207688063383102,-0.0342074446380138,#
8.676375389099121,-4.132404804229736,-2.2923240661621094,0.0781884491443634,-0.0232121963053941,-0.0293206684291362,#
8.61176872253418,-4.1036906242370605,-2.376072883605957,0.0708582773804664,-0.0134386392310261,-0.031764056533575,#
8.61176872253418,-4.1036906242370605,-2.376072883605957,0.0635281130671501,-0.0097735561430454,-0.0305423624813556,#
8.71226692199707,-4.058227062225342,-2.3234307765960693,0.0586413368582725,-0.0097735561430454,-0.0280989725142717,#
8.748159408569336,-4.161118507385254,-2.342573404312134,0.0390942245721817,-0.0122169442474842,-0.0280989725142717,#
8.769694328308105,-4.070191383361816,-2.2995026111602783,0.0305423624813556,-0.007330167107284,-0.0293206684291362,#
8.729016304016113,-4.051048755645752,-2.3018953800201416,0.0354291386902332,-0.003665083553642,-0.0342074446380138,#
8.729016304016113,-4.051048755645752,-2.3018953800201416,0.0366508327424526,-0.0097735561430454,-0.0354291386902332,#
8.72662353515625,-4.158725738525391,-2.249253273010254,0.0219905003905296,-0.0109952501952648,-0.0354291386902332,#
8.695517539978027,-4.120440483093262,-2.352144718170166,0.0158820282667875,-0.007330167107284,-0.0378725305199623,#
8.707481384277344,-4.194617748260498,-2.3330020904541016,0.0171037223190069,-0.0048867780715227,-0.0354291386902332,#
8.745766639709473,-4.144368648529053,-2.2851457595825195,0.0293206684291362,-0.007330167107284,-0.0342074446380138,#
8.774479866027832,-4.208974838256836,-2.2396819591522217,0.0293206684291362,-0.0134386392310261,-0.0366508327424526,#
8.774479866027832,-4.208974838256836,-2.2396819591522217,0.0366508327424526,-0.0195471122860908,-0.040315918624401,#
8.733802795410156,-4.261617183685303,-2.2923240661621094,0.0427593067288398,-0.0183254163712263,-0.0390942245721817,#
8.695517539978027,-4.216153621673584,-2.3018953800201416,0.0537545569241046,-0.0024433890357613,-0.0329857505857944,#
8.6907320022583,-4.244867324829102,-2.287538528442383,0.0574196390807628,-0.0048867780715227,-0.0280989725142717,#
8.659625053405762,-4.201796531677246,-2.249253273010254,0.0586413368582725,-0.0061084721237421,-0.0280989725142717,#
8.6907320022583,-4.156332969665527,-2.232503652572632,0.0733016654849052,-0.007330167107284,-0.0244338884949684,#
8.6907320022583,-4.156332969665527,-2.232503652572632,0.069636583328247,-0.0061084721237421,-0.0232121963053941,#
8.709875106811523,-4.139583110809326,-2.1990041732788086,0.0659715011715889,-0.0097735561430454,-0.0207688063383102,#
8.669197082519531,-4.3142595291137695,-2.218146562576294,0.0488677769899368,-0.003665083553642,-0.0146603342145681,#
8.671588897705078,-4.409972190856934,-2.3856441974639893,0.0342074446380138,-0.0256555844098329,-0.0097735561430454,#
8.590232849121094,-4.448256969451904,-2.47896409034729,0.0305423624813556,-0.0378725305199623,-0.0085518611595034,#
8.590232849121094,-4.448256969451904,-2.47896409034729,0.0427593067288398,-0.0329857505857944,-0.0158820282667875,#
8.57348346710205,-4.362115383148193,-2.3162522315979004,0.0549762547016143,-0.0329857505857944,-0.0061084721237421,#
8.729016304016113,-4.141976356506348,-2.187039852142334,0.1172826737165451,-0.0366508327424526,-0.031764056533575,#
8.73619556427002,-4.110869407653809,-2.167897224426269,0.1685938388109207,-0.0232121963053941,-0.0586413368582725,#
8.824729919433594,-4.096512317657471,-2.1846470832824707,0.1466033309698104,-0.0195471122860908,-0.0623064190149307,#
8.827122688293457,-4.232903003692627,-2.251646041870117,0.1197260618209838,-0.0354291386902332,-0.0513111688196659,#
8.827122688293457,-4.232903003692627,-2.251646041870117,0.1197260618209838,-0.0415376126766204,-0.0635281130671501,#
8.9371919631958,-4.503292083740234,-2.146361827850342,0.129499614238739,-0.0549762547016143,-0.0671931952238082,#
9.087940216064451,-4.493720531463623,-2.297109842300415,0.2162399291992187,-0.0623064190149307,-0.100178949534893,#
9.205188751220703,-4.589433670043945,-2.5052852630615234,0.3176405727863312,-0.1087308079004287,-0.1160609796643257,#
9.523433685302734,-5.142175674438477,-2.258824586868286,0.3481829464435577,-0.1246128380298614,-0.1221694499254226,#
9.875179290771484,-5.737988471984863,-2.280359983444214,0.4825693070888519,-0.1905843466520309,-0.1466033309698104,#
9.875179290771484,-5.737988471984863,-2.280359983444214,0.8026533126831055,-0.235787034034729,-0.1490467190742492,#
10.535597801208496,-6.537191867828369,-1.959721684455872,1.022558331489563,-0.2858764827251434,-0.1514901220798492,#
11.313264846801758,-7.149754047393799,-1.4668002128601074,1.4513731002807615,-0.3591781854629516,-0.155155211687088,#
12.380464553833008,-8.185846328735352,-1.2227323055267334,2.050003290176392,-0.3176405727863312,-0.1637070626020431,#
13.452449798583984,-8.396414756774902,-1.06480610370636,2.418955087661743,-0.2480039745569229,-0.1979145109653473,#
13.452449798583984,-8.396414756774902,-1.06480610370636,3.274141311645508,-0.0195471122860908,-0.3066453039646148,#
14.3330078125,-6.51326322555542,-1.1389836072921753,3.786031246185303,0.2040229737758636,-0.3054236173629761,#
15.012569427490234,-4.465007305145264,-0.4785645008087158,4.426198959350586,0.8148701786994934,-0.0879620015621185,#
15.223136901855469,-3.768695831298828,0.7154539823532104,4.455520153045654,1.6492875814437866,0.2284568697214126,#
15.596417427062988,-4.321437358856201,1.8855443000793457,4.235614776611328,2.0145742893218994,0.3359659910202026,#
15.50788402557373,-3.452842950820923,2.543570280075073,3.654088020324707,2.553341627120972,0.6487197875976562,#
15.50788402557373,-3.452842950820923,2.543570280075073,2.7781333923339844,2.91374135017395,1.0384403467178345,#
14.802000999450684,-3.2542388439178467,2.6799612045288086,2.410403251647949,3.260702610015869,1.1667182445526123,#
14.258829116821287,-4.051048755645752,3.811766624450684,1.8667491674423216,4.231949806213379,1.5539953708648682,#
12.741781234741213,-5.077569961547852,4.8813581466674805,1.2522368431091309,5.006504058837891,2.2747950553894043,#
12.045469284057615,-7.561319828033447,6.64486837387085,1.1141853332519531,5.1543288230896,2.633973360061645,#
12.045469284057615,-7.561319828033447,6.64486837387085,1.2473500967025757,5.33391809463501,3.265589475631714,#
10.432705879211426,-10.341779708862305,6.781259536743164,1.2632319927215576,4.994287014007568,3.013920307159424,#
10.29870891571045,-7.5804619789123535,6.510870456695557,1.6175235509872437,4.820806503295898,2.695058107376098,#
9.166903495788574,-5.644669055938721,5.481956481933594,2.349318504333496,5.210526943206787,1.4953540563583374,#
7.444070816040039,-4.228117942810059,5.077569961547852,3.0542361736297607,5.227630615234375,1.3401988744735718,#
6.647261142730713,-4.122833251953125,3.94097900390625,3.238712310791016,4.693750381469727,1.1141853332519531,#
6.647261142730713,-4.122833251953125,3.94097900390625,2.6742892265319824,4.016931533813477,0.652384877204895,#
5.864808082580566,-5.414957523345947,3.665804386138916,2.3823041915893555,3.740828514099121,0.5351021885871887,#
4.8502516746521,-6.03230619430542,3.828516006469727,2.3761956691741943,3.4060842990875244,0.4178195297718048,#
3.153740167617798,-5.5345988273620605,3.524627923965454,2.7121615409851074,3.112877607345581,0.1649287492036819,#
1.6869399547576904,-5.446063995361328,3.948157548904419,2.827000856399536,2.9467270374298096,0.0476460866630077,#
0.3541377484798431,-4.922036170959473,3.2470602989196777,2.8624300956726074,2.600987434387207,-0.2467822879552841,#
0.3541377484798431,-4.922036170959473,3.2470602989196777,2.4323935508728027,2.0292346477508545,-0.393385648727417,#
-1.2538390159606934,-4.484149932861328,3.1250264644622803,2.1819465160369877,1.7873390913009644,-0.4422534108161926,#
-2.6057839393615723,-4.910072326660156,3.510270833969116,1.8765227794647217,1.3988401889801023,-0.5008947253227234,#
-3.4983065128326416,-4.4027934074401855,3.8596229553222656,1.6676130294799805,1.0335536003112793,-0.5338804721832275,#
-4.967499732971191,-2.567498683929444,4.182653903961182,1.580872654914856,0.9211575984954834,-0.5790832042694092,#
-4.967499732971191,-2.567498683929444,4.182653903961182,1.243685007095337,0.6768187284469604,-0.4581354260444641,#
-6.120840072631836,-1.8975083827972408,4.524827480316162,1.0897514820098877,0.5876350998878479,-0.4068242609500885,#
-6.5491557121276855,-1.8616160154342647,5.146961212158203,0.9248227477073668,0.3188622593879699,-0.3799469769001007,#
-6.601797103881836,-1.1772687435150146,5.460421085357666,1.021336555480957,0.2162399291992187,-0.1417165547609329,#
-6.714260101318359,-0.5120640397071838,5.419743537902832,1.0335536003112793,0.1954711079597473,0.0219905003905296,#
-6.685546875,0.3852444589138031,6.345765590667725,0.8222004175186157,0.2785463333129883,0.3555130958557129,#
-6.685546875,0.3852444589138031,6.345765590667725,0.388498842716217,0.2101314514875412,0.7525637745857239,#
-6.510870456695557,-0.1196411252021789,6.872186660766602,0.5473191142082214,-0.1209477484226226,1.0909732580184937,#
-6.424728870391846,-1.3112668991088867,8.374878883361816,0.5057815313339233,-0.3579564988613128,0.7293516397476196,#
-5.517848491668701,-0.7082754969596863,8.987441062927246,0.5326588153839111,-0.342074453830719,0.6914790868759155,#
-4.374079704284668,-0.064606212079525,9.08554744720459,1.0384403467178345,-0.1466033309698104,1.0005677938461304,#
-4.374079704284668,-0.064606212079525,9.08554744720459,0.8906152844429016,0.2638860046863556,1.51734459400177,#
-4.627718925476074,0.8422735333442688,9.128618240356444,0.5509842038154602,0.3530696928501129,1.8142162561416624,#
-4.886143684387207,1.643869161605835,9.34157943725586,-0.1185043603181839,0.2712161839008331,2.201493501663208,#
-4.862215518951416,0.7369893789291382,9.698110580444336,-0.3481829464435577,0.258999228477478,2.288233757019043,#
-4.685146808624268,-0.1938186287879943,9.74835968017578,-0.3200839459896087,0.2724378705024719,2.4861481189727783,#
-4.35972261428833,0.7513462901115417,9.65503978729248,-0.130721315741539,0.3249707520008087,2.791571855545044,#
-4.35972261428833,0.7513462901115417,9.65503978729248,-0.152711808681488,0.4471401870250702,2.935731887817383,#
-4.632504463195801,1.6654045581817627,8.894121170043945,-0.5839699506759644,0.5851916074752808,3.150750160217285,#
-5.115854740142822,2.1583259105682373,8.248059272766113,-1.0799779891967771,0.4141544103622436,3.47327733039856,#
-5.508277893066406,1.447657585144043,8.748159408569336,-1.187487006187439,0.3176405727863312,3.658974885940552,#
-5.67338228225708,1.184447169303894,8.642874717712402,-1.147171139717102,0.1588202863931656,3.7945830821990967,#
-5.965306758880615,1.459621787071228,7.987241268157959,-1.0384403467178345,0.031764056533575,3.7567105293273926,punch
-5.965306758880615,1.459621787071228,7.987241268157959,-0.9541434049606324,-0.0109952501952648,3.8202385902404794,punch
-6.482156753540039,1.6199408769607544,8.346165657043457,-0.6731536388397217,-0.0513111688196659,4.108558654785156,punch
-7.025327682495117,2.12961220741272,8.056633949279785,-0.7550071477890015,-0.1942494213581085,4.312581539154053,punch
-7.635497093200684,1.6247265338897705,8.671588897705078,-0.684148907661438,-0.2174616158008575,4.426198959350586,punch
-7.922636032104492,1.3639088869094849,8.329416275024414,-0.4544703662395477,-0.1942494213581085,4.73162317276001,punch
-7.922636032104492,1.3639088869094849,8.329416275024414,-0.4825693070888519,-0.1343863904476165,4.9771833419799805,punch
-7.743173599243164,1.4045867919921875,8.662017822265625,-0.3665083348751068,0.0354291386902332,5.644228458404541,punch
-8.58305549621582,1.9740787744522093,9.44447135925293,-0.0647498071193695,0.494786262512207,5.842143058776856,punch
-8.575876235961914,4.168296813964844,7.314858913421631,-0.3628432750701904,0.6108472347259521,6.019289016723633,punch
-14.33061408996582,8.080562591552734,9.19561767578125,0.2101314514875412,0.4422534108161926,4.982069969177246,punch
-17.915061950683594,7.444070816040039,7.659425258636475,2.28579044342041,0.416597843170166,1.7128156423568726,punch
-17.915061950683594,7.444070816040039,7.659425258636475,2.9406187534332275,-1.3292036056518557,-0.577861487865448,punch
-9.722038269042969,3.3427734375,4.747360229492188,1.665169596672058,-5.264281749725342,-2.565558433532715,punch
-10.095318794250488,9.109475135803224,9.846465110778809,0.5326588153839111,-4.993065357208252,-1.6639479398727417,punch
-14.4263277053833,21.49951171875,8.86780071258545,1.9852535724639893,-2.675510883331299,-0.4520269632339477,punch
-6.941578388214111,4.8813581466674805,4.8191447257995605,2.0182392597198486,-0.1429382413625717,-4.225841522216797,punch
4.8574299812316895,1.813759446144104,9.346364974975586,0.7769976854324341,-5.910557746887207,-8.240328788757324,punch
4.8574299812316895,1.813759446144104,9.346364974975586,1.440377712249756,-6.064491748809815,-9.950701713562012,punch
11.497512817382812,1.4524433612823486,10.77727222442627,4.97107458114624,-4.665650844573975,-15.157563209533691,punch
11.758330345153809,4.639683246612549,-5.840879917144775,5.567261695861816,-2.600987434387207,-16.60649299621582,punch
26.964717864990234,4.651647090911865,1.3375877141952517,5.041933536529541,-5.2251877784729,-3.236268758773804,punch
12.76331615447998,-33.164520263671875,12.112468719482422,4.240501403808594,2.1575124263763428,-1.5307831764221191,punch
12.76331615447998,-33.164520263671875,12.112468719482422,-3.3767635822296143,2.759807825088501,2.469044685363769,punch
6.654439926147461,-10.463812828063965,-0.8733802437782288,-12.369656562805176,-0.5986303091049194,2.798902034759521,punch
6.096912384033203,-5.113461971282959,4.620540142059326,-6.06937837600708,0.4007157981395721,4.173308372497559,punch
2.868994235992432,4.00319242477417,0.5216353535652161,-1.2717839479446411,0.1514901220798492,1.456259846687317,punch
2.67278265953064,12.859027862548828,4.548755645751953,5.061480522155762,0.3054236173629761,-1.2180293798446655,punch
5.649453639984131,21.28415870666504,9.509077072143556,4.495835781097412,1.202147364616394,-2.235701084136963,punch
5.649453639984131,21.28415870666504,9.509077072143556,4.626556873321533,1.9461593627929688,-1.1667182445526123,punch
6.233303070068359,7.716853141784668,5.661418437957764,-0.919935941696167,1.2216944694519043,1.69082510471344,punch
1.495514154434204,7.862814903259277,7.353143692016602,-3.387758731842041,0.1478250324726104,2.238144397735596,punch
1.2323036193847656,4.917250633239746,7.810173511505127,-1.8924047946929927,-0.1563768982887268,1.8704142570495603,punch
1.6797614097595217,8.810372352600098,8.341379165649414,0.9272661209106444,0.1111741960048675,0.7061393857002258,punch
1.6797614097595217,8.810372352600098,8.341379165649414,1.1630531549453735,-0.1246128380298614,0.5131116509437561,punch
2.1128623485565186,11.203195571899414,9.772287368774414,0.5644228458404541,-0.2162399291992187,0.6108472347259521,punch
2.352144718170166,9.568897247314451,10.33938694000244,-0.5864133238792419,-0.0720799788832664,0.5644228458404541,punch
1.983649969100952,7.628318786621094,10.03549861907959,-0.8893935680389404,0.0195471122860908,0.5192201733589172,punch
1.521835207939148,6.908078193664551,10.155139923095703,-0.8893935680389404,0.1270562261343002,0.4141544103622436,punch
1.514656662940979,6.455835819244385,9.360722541809082,-0.5656445622444153,0.0439810007810592,0.287098228931427,punch
1.514656662940979,6.455835819244385,9.360722541809082,-0.3542913794517517,0.0390942245721817,0.2150182276964187,punch
2.043470621109009,6.27158784866333,9.422935485839844,0.0867403075098991,0.2687727808952331,0.1588202863931656,punch
1.2011969089508057,7.190432548522949,9.30329418182373,0.0122169442474842,0.3726168274879455,0.1698155403137207,punch
1.0743772983551023,6.642475128173828,9.207581520080566,-0.128277912735939,0.3384093642234802,0.0904053896665573,punch
1.0887343883514404,5.7619171142578125,8.922836303710938,-0.199136197566986,0.2797680497169494,-0.0513111688196659,punch
1.0408778190612793,5.2115678787231445,8.858229637145996,-0.1258345395326614,0.2211267054080963,-0.1123958900570869,punch
1.0408778190612793,5.2115678787231445,8.858229637145996,-0.0745233595371246,0.199136197566986,-0.1417165547609329,punch
1.1533405780792236,4.510470867156982,8.74337387084961,0.100178949534893,0.2211267054080963,-0.1368297785520553,punch
0.8805587291717529,4.756931304931641,8.815157890319824,0.1270562261343002,0.2089097648859024,-0.1600419729948043,punch
0.8470591902732849,4.761716842651367,8.482556343078613,-0.007330167107284,0.1575985848903656,-0.1588202863931656,punch
0.7274181246757507,4.110869407653809,8.336593627929688,-0.2223483920097351,0.0549762547016143,-0.1172826737165451,punch
0.7274181246757507,4.110869407653809,8.336593627929688,-0.2467822879552841,0.069636583328247,-0.1417165547609329,punch
0.6915256977081299,3.6323046684265137,8.379664421081543,-0.1795890927314758,0.0280989725142717,-0.200357899069786,punch
0.8039883971214294,3.192025184631348,8.38684368133545,0.0183254163712263,0.0745233595371246,-0.2321219593286514,punch
0.7130610942840576,3.627518892288208,8.23130989074707,0.0610847249627113,0.0965138673782348,-0.2235700935125351,punch
0.7489535212516785,3.615554809570313,8.13798999786377,-0.0855186134576797,0.0781884491443634,-0.2064663618803024,punch
0.5982056856155396,3.259024381637573,8.087740898132324,-0.2626643180847168,0.0268772784620523,-0.1417165547609329,punch
0.5982056856155396,3.259024381637573,8.087740898132324,-0.2626643180847168,0.0122169442474842,-0.1380514800548553,punch
0.7178468108177185,2.902493953704834,8.336593627929688,-0.1453816443681717,-0.0061084721237421,-0.1808107793331146,punch
0.5838487148284912,3.0173492431640625,7.968099594116211,-0.0952921733260154,-0.007330167107284,-0.130721315741539,punch
0.5312066078186035,3.053241729736328,8.097311973571777,-0.0549762547016143,-0.0146603342145681,-0.1185043603181839,punch
0.7489535212516785,2.864208698272705,7.865207672119141,-0.0488677769899368,-0.0280989725142717,-0.100178949534893,punch
1.2059825658798218,2.1655044555664062,8.173882484436035,-0.0708582773804664,-0.0745233595371246,0.003665083553642,punch
1.2059825658798218,2.1655044555664062,8.173882484436035,-0.0476460866630077,-0.0659715011715889,0.0537545569241046,punch
