accX,accY,accZ,gyrX,gyrY,gyrZ,annotation
9.090332984924316,-2.3306093215942383,3.019742012023926,-0.0891837030649185,-0.0012216945178806,-0.007330167107284,#
9.049654960632324,-2.3784656524658203,2.9790639877319336,-0.0855186134576797,-0.0012216945178806,-0.0061084721237421,#
9.001798629760742,-2.4574286937713623,2.974278450012207,-0.0769667476415634,-0.003665083553642,-0.0061084721237421,#
9.001798629760742,-2.4574286937713623,2.974278450012207,-0.0720799788832664,-0.0048867780715227,0.003665083553642,#
9.023333549499512,-2.4095723628997803,2.96949315071106,-0.0537545569241046,-0.0048867780715227,0.0097735561430454,#
8.999405860900879,-2.3784656524658203,3.005385160446167,-0.0488677769899368,-0.0012216945178806,0.0134386392310261,#
8.951549530029297,-2.476571559906006,2.967100143432617,-0.0500894747674465,-0.0012216945178806,0.0146603342145681,#
8.97787094116211,-2.4191436767578125,2.9862425327301025,-0.0561979450285434,-0.0012216945178806,0.0158820282667875,#
8.97787094116211,-2.4191436767578125,2.9862425327301025,-0.0598630309104919,0.0012216945178806,0.0171037223190069,#
9.016156196594238,-2.4646072387695312,3.0149567127227783,-0.0586413368582725,0.0024433890357613,0.0219905003905296,#
8.973085403442383,-2.423929214477539,2.991028308868408,-0.0586413368582725,0.007330167107284,0.0305423624813556,#
8.973085403442383,-2.414358139038086,2.943171739578247,-0.0610847249627113,0.0097735561430454,0.0342074446380138,#
9.03290557861328,-2.3330020904541016,2.8833510875701904,-0.0671931952238082,0.0146603342145681,0.0415376126766204,#
9.09272575378418,-2.486142873764038,2.9383859634399414,-0.0733016654849052,0.0146603342145681,0.0415376126766204,#
9.09272575378418,-2.486142873764038,2.9383859634399414,-0.0733016654849052,0.0134386392310261,0.0415376126766204,#
9.035298347473145,-2.4023938179016118,2.933600425720215,-0.0708582773804664,0.0097735561430454,0.040315918624401,#
8.994620323181152,-2.426322221755981,2.8833510875701904,-0.0708582773804664,0.0085518611595034,0.0390942245721817,#
9.025726318359377,-2.400001049041748,2.926422357559204,-0.0733016654849052,0.0061084721237421,0.0378725305199623,#
9.04726219177246,-2.455036163330078,2.8737800121307373,-0.0733016654849052,0.003665083553642,0.0354291386902332,#
9.04726219177246,-2.455036163330078,2.8737800121307373,-0.0745233595371246,0.003665083553642,0.0329857505857944,#
9.080761909484863,-2.4358932971954346,2.8283162117004395,-0.0733016654849052,0.0024433890357613,0.031764056533575,#
9.054441452026367,-2.380858421325684,2.9790639877319336,-0.0708582773804664,0.0012216945178806,0.031764056533575,#
9.020941734313965,-2.3545374870300293,2.868994235992432,-0.0708582773804664,0.0012216945178806,0.031764056533575,#
9.07119083404541,-2.407179594039917,2.919243574142456,-0.0635281130671501,-0.0048867780715227,0.0293206684291362,#
9.109475135803224,-2.445464611053467,2.909672498703003,-0.0610847249627113,-0.007330167107284,0.0268772784620523,#
9.109475135803224,-2.445464611053467,2.909672498703003,-0.0598630309104919,-0.007330167107284,0.0244338884949684,#
9.08554744720459,-2.395215511322021,2.919243574142456,-0.0635281130671501,-0.0097735561430454,0.0195471122860908,#
9.087940216064451,-2.4741785526275635,2.945564746856689,-0.0647498071193695,-0.0097735561430454,0.0146603342145681,#
9.044869422912598,-2.4335007667541504,2.9838497638702397,-0.0635281130671501,-0.0097735561430454,0.0134386392310261,#
8.992227554321289,-2.452643394470215,2.9479575157165527,-0.0623064190149307,-0.007330167107284,0.0122169442474842,#
8.992227554321289,-2.452643394470215,2.9479575157165527,-0.0623064190149307,-0.0061084721237421,0.0109952501952648,#
9.066404342651367,-2.524427890777588,2.931207656860352,-0.0623064190149307,-0.003665083553642,0.0085518611595034,#
8.992227554321289,-2.445464611053467,2.9288151264190674,-0.0561979450285434,-0.0012216945178806,0.0048867780715227,#
9.087940216064451,-2.44067907333374,2.8809585571289062,-0.0549762547016143,-0.0012216945178806,0.003665083553642,#
9.078369140625,-2.5196423530578613,2.9216365814208984,-0.0549762547016143,-0.0024433890357613,-0.0024433890357613,#
9.075976371765137,-2.531606435775757,2.9623143672943115,-0.0488677769899368,-0.0048867780715227,-0.0061084721237421,#
9.075976371765137,-2.531606435775757,2.9623143672943115,-0.0415376126766204,-0.0048867780715227,-0.0085518611595034,#
8.97787094116211,-2.526820659637451,2.9168508052825928,-0.0305423624813556,-0.0085518611595034,-0.007330167107284,#
8.994620323181152,-2.526820659637451,2.8761727809906006,-0.0268772784620523,-0.007330167107284,-0.0085518611595034,#
9.04726219177246,-2.557927370071411,2.871387243270874,-0.0268772784620523,-0.007330167107284,-0.0109952501952648,#
9.080761909484863,-2.569891452789306,2.8354949951171875,-0.0256555844098329,-0.0061084721237421,-0.0146603342145681,#
9.080761909484863,-2.569891452789306,2.8354949951171875,-0.0219905003905296,-0.0061084721237421,-0.0171037223190069,#
9.025726318359377,-2.651247262954712,2.919243574142456,-0.0134386392310261,-0.0109952501952648,-0.0195471122860908,#
9.042476654052734,-2.596212387084961,2.878565788269043,-0.0061084721237421,-0.0122169442474842,-0.0183254163712263,#
8.980262756347656,-2.589033842086792,2.9240293502807617,-0.0061084721237421,-0.0134386392310261,-0.0171037223190069,#
9.030512809753418,-2.589033842086792,2.971885919570923,-0.0012216945178806,-0.0122169442474842,-0.0122169442474842,#
9.030512809753418,-2.589033842086792,2.971885919570923,0.0024433890357613,-0.0085518611595034,-0.0097735561430454,#
9.028119087219238,-2.555534601211548,2.895315170288086,0.0024433890357613,-0.0061084721237421,-0.0085518611595034,#
9.037691116333008,-2.562713146209717,2.895315170288086,0.0024433890357613,-0.0061084721237421,-0.0085518611595034,#
9.073582649230955,-2.562713146209717,2.912065029144287,-0.003665083553642,-0.0048867780715227,-0.0085518611595034,#
9.049654960632324,-2.636890411376953,2.950350284576416,-0.0048867780715227,-0.0061084721237421,-0.0097735561430454,#
8.997013092041016,-2.57228422164917,2.8977081775665283,-0.003665083553642,-0.003665083553642,-0.007330167107284,#
8.997013092041016,-2.57228422164917,2.8977081775665283,-0.0024433890357613,-0.0024433890357613,-0.007330167107284,#
9.013763427734377,-2.541177749633789,2.8426735401153564,-0.0012216945178806,-0.0012216945178806,-0.003665083553642,#
8.997013092041016,-2.610569477081299,2.857030153274536,-0.0012216945178806,-0.0024433890357613,-0.0024433890357613,#
9.001798629760742,-2.565105676651001,2.8737800121307373,0.003665083553642,-0.003665083553642,-0.003665083553642,#
9.006584167480469,-2.555534601211548,2.8522443771362305,0.0109952501952648,-0.007330167107284,-0.0061084721237421,#
9.006584167480469,-2.555534601211548,2.8522443771362305,0.0122169442474842,-0.0097735561430454,-0.0085518611595034,#
8.980262756347656,-2.589033842086792,2.8737800121307373,0.0122169442474842,-0.0109952501952648,-0.0085518611595034,#
9.011369705200195,-2.565105676651001,2.8139593601226807,0.0122169442474842,-0.0109952501952648,-0.0097735561430454,#
9.044869422912598,-2.53399920463562,2.8809585571289062,0.0109952501952648,-0.0097735561430454,-0.0097735561430454,#
9.052047729492188,-2.541177749633789,2.8666017055511475,0.0109952501952648,-0.0097735561430454,-0.0109952501952648,#
9.028119087219238,-2.553141593933105,2.847458839416504,0.007330167107284,-0.007330167107284,-0.0109952501952648,#
9.028119087219238,-2.553141593933105,2.847458839416504,0.0048867780715227,-0.0085518611595034,-0.0109952501952648,#
8.997013092041016,-2.548356056213379,2.8211379051208496,0.0048867780715227,-0.0097735561430454,-0.0109952501952648,#
9.004191398620605,-2.57228422164917,2.8426735401153564,0.0122169442474842,-0.0134386392310261,-0.0109952501952648,#
9.073582649230955,-2.562713146209717,2.9479575157165527,0.0134386392310261,-0.0134386392310261,-0.0109952501952648,#
9.030512809753418,-2.565105676651001,2.854637384414673,0.0134386392310261,-0.0134386392310261,-0.0109952501952648,#
9.030512809753418,-2.565105676651001,2.854637384414673,0.0109952501952648,-0.0109952501952648,-0.0097735561430454,#
9.054441452026367,-2.550748825073242,2.89052963256836,0.0061084721237421,-0.0085518611595034,-0.0097735561430454,#
9.023333549499512,-2.517249345779419,2.871387243270874,0.0012216945178806,-0.0061084721237421,-0.0097735561430454,#
9.06401252746582,-2.543570280075073,2.8211379051208496,0.0012216945178806,-0.0061084721237421,-0.0109952501952648,#
8.989834785461426,-2.579463005065918,2.9527432918548584,0.0061084721237421,-0.0061084721237421,-0.0122169442474842,#
9.075976371765137,-2.5292134284973145,2.9168508052825928,0.0122169442474842,-0.007330167107284,-0.0097735561430454,#
9.075976371765137,-2.5292134284973145,2.9168508052825928,0.0158820282667875,-0.0061084721237421,-0.0097735561430454,#
9.001798629760742,-2.560320377349853,2.902493953704834,0.0183254163712263,-0.0048867780715227,-0.0061084721237421,#
9.035298347473145,-2.6081764698028564,2.89052963256836,0.0158820282667875,-0.003665083553642,-0.0048867780715227,#
9.109475135803224,-2.6249265670776367,2.864208698272705,0.0134386392310261,-0.0024433890357613,-0.0048867780715227,#
9.037691116333008,-2.557927370071411,2.902493953704834,0.0183254163712263,-0.0024433890357613,-0.003665083553642,#
9.037691116333008,-2.557927370071411,2.902493953704834,0.0195471122860908,-0.0024433890357613,-0.0024433890357613,#
9.001798629760742,-2.557927370071411,2.8522443771362305,0.0219905003905296,0.0012216945178806,0.0024433890357613,#
9.059226989746094,-2.560320377349853,2.854637384414673,0.0268772784620523,0.0012216945178806,0.003665083553642,#
9.147761344909668,-2.548356056213379,2.900100946426392,0.0244338884949684,-0.0012216945178806,0.0012216945178806,#
9.08554744720459,-2.596212387084961,2.8737800121307373,0.031764056533575,-0.0048867780715227,-0.0024433890357613,#
9.04726219177246,-2.5938196182250977,2.888136863708496,0.0439810007810592,-0.0085518611595034,-0.0024433890357613,#
9.04726219177246,-2.5938196182250977,2.888136863708496,0.0452026948332786,-0.0109952501952648,0.0012216945178806,#
8.9850492477417,-2.620140790939331,2.9072794914245605,0.0500894747674465,-0.0109952501952648,0.007330167107284,#
8.999405860900879,-2.555534601211548,2.9288151264190674,0.0488677769899368,-0.0061084721237421,0.0146603342145681,#
8.992227554321289,-2.4813570976257324,2.9168508052825928,0.0464243926107883,-0.0024433890357613,0.0146603342145681,#
8.898907661437988,-2.462214469909668,2.861815929412842,0.0366508327424526,0.0024433890357613,0.0122169442474842,#
8.898907661437988,-2.462214469909668,2.861815929412842,0.0305423624813556,0.0048867780715227,0.0097735561430454,#
9.061619758605955,-2.5076780319213867,2.8833510875701904,0.0183254163712263,0.0097735561430454,0.0061084721237421,#
9.028119087219238,-2.5363922119140625,2.909672498703003,0.0158820282667875,0.0122169442474842,0.0048867780715227,#
8.997013092041016,-2.524427890777588,2.8737800121307373,0.0195471122860908,0.0146603342145681,0.0061084721237421,#
8.970691680908203,-2.4574286937713623,2.878565788269043,0.0244338884949684,0.0171037223190069,0.0097735561430454,#
9.080761909484863,-2.4957141876220703,2.854637384414673,0.0207688063383102,0.0195471122860908,0.0122169442474842,#
9.080761909484863,-2.4957141876220703,2.854637384414673,0.0207688063383102,0.0207688063383102,0.0122169442474842,#
9.10229778289795,-2.4717857837677,2.888136863708496,0.0207688063383102,0.0219905003905296,0.0061084721237421,#
9.013763427734377,-2.522034883499145,2.8211379051208496,0.0219905003905296,0.0183254163712263,0.0012216945178806,#
9.018548011779783,-2.4957141876220703,2.854637384414673,0.0219905003905296,0.0183254163712263,0.0012216945178806,#
9.001798629760742,-2.543570280075073,2.825923442840576,0.0256555844098329,0.0134386392310261,0.0012216945178806,#
9.001798629760742,-2.543570280075073,2.825923442840576,0.031764056533575,0.0097735561430454,0.0012216945178806,#
8.987441062927246,-2.5363922119140625,2.8043880462646484,0.0439810007810592,0.0048867780715227,-0.003665083553642,#
8.973085403442383,-2.5076780319213867,2.809173583984375,0.0476460866630077,0.0012216945178806,-0.0085518611595034,#
9.061619758605955,-2.4813570976257324,2.84506630897522,0.0452026948332786,0.0012216945178806,-0.0122169442474842,#
9.023333549499512,-2.493321180343628,2.9168508052825928,0.0354291386902332,-0.0024433890357613,-0.0158820282667875,#
9.013763427734377,-2.486142873764038,2.864208698272705,0.0354291386902332,-0.0048867780715227,-0.0158820282667875,#
9.013763427734377,-2.486142873764038,2.864208698272705,0.0390942245721817,-0.0061084721237421,-0.0146603342145681,#
9.061619758605955,-2.538784980773926,2.888136863708496,0.0439810007810592,-0.0061084721237421,-0.0109952501952648,#
9.07119083404541,-2.538784980773926,2.943171739578247,0.040315918624401,-0.007330167107284,-0.0085518611595034,#
9.044869422912598,-2.543570280075073,2.943171739578247,0.0378725305199623,-0.0061084721237421,-0.007330167107284,#
9.004191398620605,-2.5459630489349365,2.885744333267212,0.0354291386902332,-0.0048867780715227,-0.0061084721237421,#
9.004191398620605,-2.5459630489349365,2.885744333267212,0.0366508327424526,-0.0061084721237421,-0.007330167107284,#
9.06401252746582,-2.524427890777588,2.8761727809906006,0.0390942245721817,-0.0085518611595034,-0.0085518611595034,#
8.963513374328613,-2.47896409034729,2.971885919570923,0.0390942245721817,-0.0109952501952648,-0.0097735561430454,#
8.999405860900879,-2.4741785526275635,2.9551358222961426,0.0390942245721817,-0.0109952501952648,-0.0097735561430454,#
8.989834785461426,-2.5076780319213867,2.919243574142456,0.0390942245721817,-0.0097735561430454,-0.007330167107284,#
8.968299865722656,-2.4741785526275635,2.940778970718384,0.040315918624401,-0.0097735561430454,-0.0061084721237421,#
8.968299865722656,-2.4741785526275635,2.940778970718384,0.0415376126766204,-0.0097735561430454,-0.0048867780715227,#
9.049654960632324,-2.5004994869232178,2.964707374572754,0.040315918624401,-0.0109952501952648,-0.0061084721237421,#
9.087940216064451,-2.4741785526275635,2.902493953704834,0.0415376126766204,-0.0122169442474842,-0.0085518611595034,#
8.975478172302246,-2.517249345779419,2.9527432918548584,0.0427593067288398,-0.0109952501952648,-0.0097735561430454,#
9.013763427734377,-2.455036163330078,2.9527432918548584,0.0427593067288398,-0.0109952501952648,-0.007330167107284,#
9.013763427734377,-2.455036163330078,2.9527432918548584,0.040315918624401,-0.0097735561430454,-0.0048867780715227,#
9.044869422912598,-2.416750907897949,2.9048867225646973,0.0342074446380138,-0.007330167107284,-0.0012216945178806,#
9.004191398620605,-2.4502503871917725,2.895315170288086,0.0256555844098329,-0.0024433890357613,-0.003665083553642,#
9.044869422912598,-2.4981069564819336,2.9072794914245605,0.0256555844098329,-0.003665083553642,-0.0048867780715227,#
9.07119083404541,-2.4335007667541504,3.012563943862915,0.0329857505857944,-0.0061084721237421,-0.0097735561430454,#
9.001798629760742,-2.3736801147460938,2.950350284576416,0.0342074446380138,-0.0085518611595034,-0.0085518611595034,#
9.001798629760742,-2.3736801147460938,2.950350284576416,0.0329857505857944,-0.0085518611595034,-0.007330167107284,#
8.934800148010254,-2.4191436767578125,2.981456995010376,0.0366508327424526,-0.0085518611595034,-0.0024433890357613,#
8.94676399230957,-2.426322221755981,2.991028308868408,0.0390942245721817,-0.003665083553642,-0.0024433890357613,#
8.98265552520752,-2.395215511322021,3.022134780883789,0.0378725305199623,-0.0012216945178806,-0.0024433890357613,#
8.958727836608887,-2.4430718421936035,2.981456995010376,0.0280989725142717,0.0024433890357613,-0.0024433890357613,#
8.958727836608887,-2.4430718421936035,2.981456995010376,0.0207688063383102,0.003665083553642,-0.003665083553642,#
8.980262756347656,-2.44067907333374,2.940778970718384,0.0122169442474842,0.003665083553642,-0.003665083553642,#
9.087940216064451,-2.4287149906158447,2.957528829574585,0.0146603342145681,0.0085518611595034,-0.0012216945178806,#
8.963513374328613,-2.445464611053467,2.9383859634399414,0.0171037223190069,0.0097735561430454,0.0012216945178806,#
9.04726219177246,-2.4095723628997803,2.950350284576416,0.0097735561430454,0.0134386392310261,0.0048867780715227,#
9.080761909484863,-2.4430718421936035,2.971885919570923,-0.0012216945178806,0.0146603342145681,0.0048867780715227,#
9.080761909484863,-2.4430718421936035,2.971885919570923,-0.0024433890357613,0.0146603342145681,0.0024433890357613,#
9.037691116333008,-2.416750907897949,3.0077781677246094,-0.0061084721237421,0.0146603342145681,-0.0012216945178806,#
8.994620323181152,-2.392822742462158,2.931207656860352,-0.007330167107284,0.0109952501952648,-0.0012216945178806,#
8.989834785461426,-2.3736801147460938,2.9048867225646973,-0.0097735561430454,0.0097735561430454,0.0012216945178806,#
8.965906143188477,-2.411965131759644,2.8737800121307373,-0.0109952501952648,0.0097735561430454,0.0061084721237421,#
8.965906143188477,-2.411965131759644,2.8737800121307373,-0.0109952501952648,0.0097735561430454,0.0061084721237421,#
9.06401252746582,-2.4502503871917725,2.900100946426392,-0.0085518611595034,0.0097735561430454,0.0024433890357613,#
9.030512809753418,-2.383251428604126,2.957528829574585,-0.0134386392310261,0.0061084721237421,-0.003665083553642,#
9.080761909484863,-2.3712873458862305,2.861815929412842,-0.0195471122860908,0.0024433890357613,-0.007330167107284,#
9.020941734313965,-2.3617160320281982,2.840280532836914,-0.0280989725142717,-0.0012216945178806,-0.0097735561430454,#
9.044869422912598,-2.4191436767578125,2.868994235992432,-0.0256555844098329,-0.003665083553642,-0.0085518611595034,#
9.044869422912598,-2.4191436767578125,2.868994235992432,-0.0244338884949684,-0.0024433890357613,-0.0048867780715227,#
9.037691116333008,-2.416750907897949,2.9048867225646973,-0.0280989725142717,-0.0024433890357613,-0.0048867780715227,#
9.044869422912598,-2.426322221755981,2.8666017055511475,-0.0366508327424526,-0.0024433890357613,0.003665083553642,#
9.049654960632324,-2.395215511322021,2.8809585571289062,-0.0415376126766204,-0.0024433890357613,0.003665083553642,#
9.008977890014648,-2.426322221755981,2.9048867225646973,-0.0488677769899368,-0.003665083553642,0.003665083553642,#
9.008977890014648,-2.426322221755981,2.9048867225646973,-0.0525328628718853,-0.003665083553642,-0.0024433890357613,#
8.975478172302246,-2.392822742462158,2.8977081775665283,-0.0549762547016143,-0.0061084721237421,-0.007330167107284,#
8.963513374328613,-2.3784656524658203,2.8737800121307373,-0.0561979450285434,-0.007330167107284,-0.0085518611595034,#
8.992227554321289,-2.447857618331909,2.9838497638702397,-0.0549762547016143,-0.0085518611595034,-0.0097735561430454,#
9.078369140625,-2.431107759475708,2.967100143432617,-0.0525328628718853,-0.0061084721237421,-0.0085518611595034,#
9.06879711151123,-2.431107759475708,3.0101709365844727,-0.0500894747674465,-0.0048867780715227,-0.007330167107284,#
9.06879711151123,-2.431107759475708,3.0101709365844727,-0.0500894747674465,-0.0048867780715227,-0.007330167107284,#
9.097511291503906,-2.4430718421936035,2.9838497638702397,-0.0525328628718853,-0.003665083553642,-0.0085518611595034,#
8.987441062927246,-2.416750907897949,3.034099102020264,-0.0500894747674465,-0.0024433890357613,-0.0097735561430454,#
9.016156196594238,-2.3330020904541016,3.0077781677246094,-0.0452026948332786,-0.003665083553642,-0.0109952501952648,#
9.025726318359377,-2.4287149906158447,2.9934213161468506,-0.0452026948332786,-0.0012216945178806,-0.0097735561430454,#
9.025726318359377,-2.4287149906158447,2.9934213161468506,-0.0452026948332786,0.0012216945178806,-0.0085518611595034,#
9.028119087219238,-2.469392776489258,3.012563943862915,-0.0452026948332786,0.0024433890357613,-0.0109952501952648,#
9.044869422912598,-2.445464611053467,2.9862425327301025,-0.0390942245721817,0.0048867780715227,-0.0134386392310261,#
9.016156196594238,-2.524427890777588,3.0101709365844727,-0.0342074446380138,0.0048867780715227,-0.0134386392310261,#
9.044869422912598,-2.452643394470215,2.950350284576416,-0.031764056533575,0.0024433890357613,-0.0122169442474842,#
9.028119087219238,-2.455036163330078,2.964707374572754,-0.0305423624813556,0.0012216945178806,-0.0085518611595034,#
9.028119087219238,-2.455036163330078,2.964707374572754,-0.0268772784620523,0.0024433890357613,-0.0061084721237421,#
9.006584167480469,-2.445464611053467,3.0077781677246094,-0.0207688063383102,0.0061084721237421,-0.003665083553642,#
9.049654960632324,-2.4574286937713623,2.9934213161468506,-0.0183254163712263,0.007330167107284,-0.0048867780715227,#
8.989834785461426,-2.4909284114837646,2.998206615447998,-0.0207688063383102,0.0085518611595034,-0.0061084721237421,#
9.06879711151123,-2.531606435775757,2.9934213161468506,-0.0207688063383102,0.0061084721237421,-0.007330167107284,#
9.06879711151123,-2.531606435775757,2.9934213161468506,-0.0195471122860908,0.003665083553642,-0.007330167107284,#
9.03290557861328,-2.4957141876220703,3.002992391586304,-0.0097735561430454,0.003665083553642,-0.0061084721237421,#
9.008977890014648,-2.514856576919556,2.902493953704834,-0.0048867780715227,0.003665083553642,-0.0024433890357613,#
8.97787094116211,-2.445464611053467,2.9240293502807617,-0.0061084721237421,0.003665083553642,-0.0012216945178806,#
9.03290557861328,-2.47896409034729,2.914458036422729,-0.0085518611595034,0.0061084721237421,-0.0012216945178806,#
9.059226989746094,-2.5076780319213867,2.950350284576416,-0.007330167107284,0.0048867780715227,-0.0012216945178806,#
9.059226989746094,-2.5076780319213867,2.950350284576416,-0.0048867780715227,0.0024433890357613,-0.003665083553642,#
8.975478172302246,-2.526820659637451,2.971885919570923,0.0012216945178806,-0.0024433890357613,-0.0048867780715227,#
9.025726318359377,-2.4813570976257324,2.9216365814208984,0.0012216945178806,-0.003665083553642,-0.0048867780715227,#
9.028119087219238,-2.4574286937713623,2.8809585571289062,0.003665083553642,-0.007330167107284,-0.0024433890357613,#
8.9850492477417,-2.4023938179016118,2.871387243270874,0.0061084721237421,-0.0048867780715227,-0.0024433890357613,#
8.9850492477417,-2.4023938179016118,2.871387243270874,0.0085518611595034,-0.0048867780715227,-0.0024433890357613,#
8.994620323181152,-2.44067907333374,2.914458036422729,0.0085518611595034,-0.0061084721237421,-0.0024433890357613,#
9.004191398620605,-2.452643394470215,2.933600425720215,0.0048867780715227,-0.0061084721237421,-0.0012216945178806,#
8.989834785461426,-2.4047868251800537,2.9240293502807617,0.0024433890357613,-0.007330167107284,-0.0024433890357613,#
9.066404342651367,-2.426322221755981,2.9479575157165527,0.0024433890357613,-0.0061084721237421,-0.0024433890357613,#
9.066404342651367,-2.426322221755981,2.9479575157165527,0.0012216945178806,-0.0048867780715227,-0.0024433890357613,#
9.078369140625,-2.3569302558898926,2.9527432918548584,-0.0012216945178806,-0.0024433890357613,0.0012216945178806,#
9.06879711151123,-2.411965131759644,2.940778970718384,-0.003665083553642,-0.0024433890357613,0.0012216945178806,#
8.992227554321289,-2.4191436767578125,2.9790639877319336,-0.0048867780715227,-0.0024433890357613,0.0012216945178806,#
9.030512809753418,-2.3856441974639893,2.943171739578247,-0.0048867780715227,-0.0024433890357613,-0.0012216945178806,#
9.059226989746094,-2.416750907897949,2.926422357559204,-0.0061084721237421,-0.0024433890357613,-0.0061084721237421,#
9.059226989746094,-2.416750907897949,2.926422357559204,-0.0061084721237421,-0.0024433890357613,-0.007330167107284,#
9.018548011779783,-2.3736801147460938,2.895315170288086,-0.0085518611595034,-0.0012216945178806,-0.0097735561430454,#
9.05683422088623,-2.4598214626312256,2.909672498703003,-0.0085518611595034,-0.0012216945178806,-0.0085518611595034,#
9.023333549499512,-2.483749866485596,2.971885919570923,-0.0085518611595034,-0.0012216945178806,-0.0085518611595034,#
9.004191398620605,-2.4574286937713623,2.959921598434448,-0.0085518611595034,-0.0012216945178806,-0.007330167107284,#
9.004191398620605,-2.4574286937713623,2.959921598434448,-0.0097735561430454,-0.0012216945178806,-0.007330167107284,#
9.049654960632324,-2.392822742462158,2.9288151264190674,-0.0097735561430454,-0.0012216945178806,-0.0085518611595034,#
9.09272575378418,-2.452643394470215,2.9383859634399414,-0.0146603342145681,-0.0012216945178806,-0.0122169442474842,#
9.025726318359377,-2.407179594039917,2.995814085006714,-0.0134386392310261,-0.0012216945178806,-0.0122169442474842,#
8.989834785461426,-2.4981069564819336,2.935993194580078,-0.0109952501952648,-0.003665083553642,-0.0097735561430454,#
9.030512809753418,-2.421536445617676,2.9048867225646973,-0.0109952501952648,-0.003665083553642,-0.0048867780715227,#
9.030512809753418,-2.421536445617676,2.9048867225646973,-0.0109952501952648,-0.003665083553642,-0.003665083553642,#
9.08554744720459,-2.416750907897949,2.837887763977051,-0.0134386392310261,-0.0061084721237421,-0.007330167107284,#
9.133403778076172,-2.4191436767578125,2.878565788269043,-0.0134386392310261,-0.007330167107284,-0.0134386392310261,#
9.030512809753418,-2.47896409034729,2.957528829574585,-0.0134386392310261,-0.0085518611595034,-0.0158820282667875,#
8.989834785461426,-2.455036163330078,2.9168508052825928,-0.0158820282667875,-0.0097735561430454,-0.0134386392310261,#
8.989834785461426,-2.455036163330078,2.9168508052825928,-0.0146603342145681,-0.0109952501952648,-0.0085518611595034,#
9.042476654052734,-2.431107759475708,2.9527432918548584,-0.0122169442474842,-0.0097735561430454,-0.003665083553642,#
8.951549530029297,-2.4646072387695312,2.931207656860352,-0.0048867780715227,-0.0097735561430454,-0.0012216945178806,#
8.963513374328613,-2.411965131759644,3.0245277881622314,-0.0061084721237421,-0.0085518611595034,-0.0024433890357613,#
9.03290557861328,-2.4191436767578125,2.9623143672943115,-0.0146603342145681,-0.007330167107284,-0.0061084721237421,#
8.98265552520752,-2.445464611053467,2.914458036422729,-0.0195471122860908,-0.007330167107284,-0.0109952501952648,#
8.98265552520752,-2.445464611053467,2.914458036422729,-0.0195471122860908,-0.007330167107284,-0.0109952501952648,#
9.06401252746582,-2.452643394470215,2.9551358222961426,-0.0146603342145681,-0.0085518611595034,-0.0097735561430454,#
9.040083885192873,-2.390429735183716,2.974278450012207,-0.0109952501952648,-0.0061084721237421,-0.003665083553642,#
8.980262756347656,-2.390429735183716,2.945564746856689,-0.0097735561430454,-0.0048867780715227,-0.0012216945178806,#
8.999405860900879,-2.4191436767578125,2.9551358222961426,-0.0109952501952648,-0.003665083553642,-0.0012216945178806,#
8.999405860900879,-2.4191436767578125,2.9551358222961426,-0.0097735561430454,-0.003665083553642,-0.0061084721237421,#
9.008977890014648,-2.392822742462158,3.002992391586304,-0.007330167107284,-0.0048867780715227,-0.0097735561430454,#
9.059226989746094,-2.5076780319213867,2.971885919570923,-0.003665083553642,-0.0061084721237421,-0.0122169442474842,#
9.025726318359377,-2.455036163330078,2.902493953704834,-0.0048867780715227,-0.007330167107284,-0.0109952501952648,#
9.035298347473145,-2.4646072387695312,2.926422357559204,-0.003665083553642,-0.0085518611595034,-0.007330167107284,#
9.04726219177246,-2.4047868251800537,2.931207656860352,-0.0012216945178806,-0.0061084721237421,-0.003665083553642,#
9.04726219177246,-2.4047868251800537,2.931207656860352,-0.0012216945178806,-0.0048867780715227,-0.0024433890357613,#
9.006584167480469,-2.4047868251800537,2.868994235992432,0.0048867780715227,-0.0061084721237421,-0.0024433890357613,#
9.073582649230955,-2.438286304473877,2.926422357559204,0.0048867780715227,-0.007330167107284,-0.0048867780715227,#
9.03290557861328,-2.407179594039917,2.885744333267212,0.0012216945178806,-0.0085518611595034,-0.0061084721237421,#
9.087940216064451,-2.502892255783081,2.8594231605529785,-0.0048867780715227,-0.0097735561430454,-0.0085518611595034,#
9.087940216064451,-2.502892255783081,2.8594231605529785,-0.0012216945178806,-0.0097735561430454,-0.0048867780715227,#
9.080761909484863,-2.4813570976257324,2.9240293502807617,0.003665083553642,-0.0109952501952648,-0.003665083553642,#
9.044869422912598,-2.44067907333374,2.8833510875701904,0.0158820282667875,-0.0146603342145681,-0.003665083553642,#
8.968299865722656,-2.411965131759644,2.8354949951171875,0.0195471122860908,-0.0171037223190069,-0.003665083553642,#
9.023333549499512,-2.4574286937713623,2.943171739578247,0.0232121963053941,-0.0195471122860908,-0.003665083553642,#
8.98265552520752,-2.4670000076293945,2.981456995010376,0.0232121963053941,-0.0219905003905296,-0.0024433890357613,#
8.98265552520752,-2.4670000076293945,2.981456995010376,0.0232121963053941,-0.0207688063383102,-0.0024433890357613,#
9.052047729492188,-2.483749866485596,2.971885919570923,0.0256555844098329,-0.0219905003905296,-0.0024433890357613,#
9.073582649230955,-2.447857618331909,2.950350284576416,0.0268772784620523,-0.0171037223190069,-0.0012216945178806,#
9.075976371765137,-2.493321180343628,2.991028308868408,0.0280989725142717,-0.0171037223190069,0.0012216945178806,#
8.999405860900879,-2.4670000076293945,2.931207656860352,0.0305423624813556,-0.0146603342145681,0.0048867780715227,#
8.999405860900879,-2.4670000076293945,2.931207656860352,0.0342074446380138,-0.0122169442474842,0.0061084721237421,#
8.930014610290527,-2.4670000076293945,2.9479575157165527,0.0354291386902332,-0.0109952501952648,0.007330167107284,#
9.013763427734377,-2.455036163330078,2.8977081775665283,0.0329857505857944,-0.0097735561430454,0.007330167107284,#
9.073582649230955,-2.4358932971954346,2.940778970718384,0.0342074446380138,-0.0097735561430454,0.003665083553642,#
9.042476654052734,-2.3569302558898926,2.964707374572754,0.0342074446380138,-0.007330167107284,0.0012216945178806,#
9.040083885192873,-2.3784656524658203,2.919243574142456,0.0329857505857944,-0.0048867780715227,0.0024433890357613,#
9.040083885192873,-2.3784656524658203,2.919243574142456,0.031764056533575,-0.003665083553642,0.003665083553642,#
9.025726318359377,-2.3880369663238525,2.9623143672943115,0.0268772784620523,-0.0012216945178806,0.0012216945178806,#
9.116654396057127,-2.304288148880005,2.9479575157165527,0.0171037223190069,0.0012216945178806,-0.0024433890357613,#
9.128618240356444,-2.416750907897949,2.9288151264190674,0.0171037223190069,0.0012216945178806,-0.0061084721237421,#
9.044869422912598,-2.4335007667541504,2.9072794914245605,0.0207688063383102,0.0012216945178806,-0.0097735561430454,#
9.028119087219238,-2.4358932971954346,2.935993194580078,0.0207688063383102,-0.0024433890357613,-0.0061084721237421,#
9.028119087219238,-2.4358932971954346,2.935993194580078,0.0183254163712263,-0.0024433890357613,-0.003665083553642,#
9.042476654052734,-2.414358139038086,2.888136863708496,0.0219905003905296,-0.0024433890357613,0.0012216945178806,#
8.98265552520752,-2.359323024749756,2.9288151264190674,0.0232121963053941,-0.0024433890357613,0.0024433890357613,#
8.992227554321289,-2.3186452388763428,2.84506630897522,0.0195471122860908,0.0012216945178806,0.0024433890357613,#
9.011369705200195,-2.3545374870300293,2.914458036422729,0.0109952501952648,0.0012216945178806,-0.0048867780715227,#
9.011369705200195,-2.3545374870300293,2.914458036422729,0.0085518611595034,0.0012216945178806,-0.007330167107284,#
9.09272575378418,-2.400001049041748,2.885744333267212,0.0097735561430454,-0.003665083553642,-0.0085518611595034,#
9.066404342651367,-2.447857618331909,2.8522443771362305,0.0122169442474842,-0.0048867780715227,-0.0061084721237421,#
9.035298347473145,-2.438286304473877,2.8426735401153564,0.0122169442474842,-0.0024433890357613,-0.0024433890357613,#
9.035298347473145,-2.366501569747925,2.931207656860352,0.0122169442474842,-0.0024433890357613,0.0024433890357613,#
9.035298347473145,-2.366501569747925,2.931207656860352,0.0097735561430454,-0.0012216945178806,0.0024433890357613,#
8.989834785461426,-2.4287149906158447,2.849851608276367,0.0109952501952648,-0.0012216945178806,0.0024433890357613,#
9.049654960632324,-2.421536445617676,2.9551358222961426,0.0109952501952648,-0.003665083553642,-0.0061084721237421,#
9.054441452026367,-2.395215511322021,2.909672498703003,0.0085518611595034,-0.0048867780715227,-0.007330167107284,#
9.001798629760742,-2.421536445617676,2.902493953704834,0.0061084721237421,-0.0085518611595034,-0.0085518611595034,#
9.035298347473145,-2.4574286937713623,2.854637384414673,0.0085518611595034,-0.0085518611595034,-0.003665083553642,#
9.035298347473145,-2.4574286937713623,2.854637384414673,0.0109952501952648,-0.0085518611595034,-0.0024433890357613,#
9.061619758605955,-2.380858421325684,2.9216365814208984,0.0146603342145681,-0.0085518611595034,-0.0012216945178806,#
9.040083885192873,-2.411965131759644,2.8809585571289062,0.0122169442474842,-0.007330167107284,-0.003665083553642,#
9.013763427734377,-2.3784656524658203,2.909672498703003,0.0097735561430454,-0.0085518611595034,-0.0061084721237421,#
9.023333549499512,-2.366501569747925,2.8354949951171875,0.0048867780715227,-0.0122169442474842,-0.007330167107284,#
9.023333549499512,-2.366501569747925,2.8354949951171875,0.007330167107284,-0.0146603342145681,-0.0085518611595034,#
9.004191398620605,-2.3784656524658203,2.9383859634399414,0.0085518611595034,-0.0158820282667875,-0.007330167107284,#
9.04726219177246,-2.3784656524658203,2.931207656860352,0.0012216945178806,-0.0158820282667875,-0.0048867780715227,#
9.016156196594238,-2.445464611053467,2.9072794914245605,-0.0048867780715227,-0.0158820282667875,-0.0061084721237421,#
9.054441452026367,-2.407179594039917,2.964707374572754,-0.0097735561430454,-0.0122169442474842,-0.0048867780715227,#
9.004191398620605,-2.337787628173828,2.9168508052825928,-0.0109952501952648,-0.0109952501952648,-0.0048867780715227,#
9.004191398620605,-2.337787628173828,2.9168508052825928,-0.0171037223190069,-0.0134386392310261,-0.0061084721237421,#
9.008977890014648,-2.3545374870300293,2.9216365814208984,-0.0610847249627113,-0.0134386392310261,-0.007330167107284,#
9.044869422912598,-2.287538528442383,2.959921598434448,-0.1466033309698104,-0.0122169442474842,-0.0109952501952648,#
9.040083885192873,-2.4909284114837646,2.895315170288086,-0.1795890927314758,-0.0097735561430454,-0.0097735561430454,#
9.05683422088623,-2.407179594039917,2.935993194580078,-0.2748812437057495,-0.0012216945178806,-0.0146603342145681,#
9.05683422088623,-2.407179594039917,2.935993194580078,-0.31641885638237,0.0024433890357613,-0.0158820282667875,#
9.075976371765137,-2.569891452789306,2.8929224014282227,-0.333522617816925,0.0061084721237421,-0.0097735561430454,#
9.025726318359377,-2.739781856536865,2.89052963256836,-0.2602209150791168,0.0024433890357613,-0.0024433890357613,#
9.145368576049805,-2.636890411376953,2.825923442840576,-0.2137965410947799,-0.0024433890357613,-0.0024433890357613,#
9.075976371765137,-2.321038007736206,2.7972097396850586,-0.2199050188064575,-0.0122169442474842,-0.0024433890357613,#
8.992227554321289,-2.273181438446045,2.768495798110962,-0.4129327237606048,-0.0048867780715227,0.003665083553642,#
8.992227554321289,-2.273181438446045,2.768495798110962,-0.52655029296875,-0.0024433890357613,0.0109952501952648,#
9.037691116333008,-2.376072883605957,2.651247262954712,-0.7244647741317749,0.0048867780715227,0.0146603342145681,#
9.11426067352295,-2.629711866378784,2.543570280075073,-0.7928797006607056,-0.0048867780715227,0.0146603342145681,#
9.008977890014648,-2.919243574142456,2.321038007736206,-0.7501204013824463,-0.0183254163712263,0.0134386392310261,#
8.965906143188477,-3.046063184738159,2.2707886695861816,-0.5082249045372009,-0.0537545569241046,0.0109952501952648,#
8.965906143188477,-3.046063184738159,2.2707886695861816,-0.342074453830719,-0.0574196390807628,0.007330167107284,#
9.119047164916992,-3.436093330383301,2.7900311946868896,-0.0500894747674465,-0.0415376126766204,0.0146603342145681,#
10.549955368041992,-4.59421968460083,5.010570526123047,0.0610847249627113,0.0219905003905296,0.1331647038459777,#
10.999805450439451,-6.573083877563477,5.850451469421387,-0.0207688063383102,0.1466033309698104,0.2467822879552841,#
11.109875679016112,-8.927621841430664,7.355536937713623,-0.2638860046863556,0.5473191142082214,0.5803048610687256,#
11.109875679016112,-8.927621841430664,7.355536937713623,0.2858764827251434,0.998124361038208,1.0005677938461304,#
11.014162063598633,-7.8819580078125,8.999405860900879,0.5131116509437561,1.180156946182251,1.237576603889465,#
11.863614082336426,-8.00399112701416,10.348958015441896,0.2993151545524597,1.6382923126220703,1.6847167015075684,#
13.253844261169434,-8.896513938903809,10.999805450439451,-0.7525637745857239,2.212488889694214,2.1306352615356445,down
13.806586265563965,-10.84427261352539,10.313065528869627,-1.4306042194366455,2.514247179031372,2.35787034034729,down
13.806586265563965,-10.84427261352539,10.313065528869627,-2.381082773208618,3.0847785472869877,2.8514349460601807,down
12.358928680419922,-11.320443153381348,9.707681655883787,-2.4800398349761963,3.28024959564209,3.0969953536987305,down
10.600205421447754,-10.29870891571045,9.12383270263672,-2.015795946121216,3.5074849128723145,3.538027286529541,down
10.490135192871094,-9.324830055236816,9.391828536987305,-1.1569446325302124,3.56123948097229,3.832455635070801,down
10.944771766662598,-10.05703353881836,9.559326171875,-0.9138274788856506,3.624767541885376,3.963176965713501,down
11.030912399291992,-10.604989051818848,8.700303077697754,-0.8099834322929382,3.76404070854187,4.28081750869751,down
11.030912399291992,-10.604989051818848,8.700303077697754,-1.100746750831604,3.891096830368042,4.6632080078125,down
9.942178726196287,-11.83489990234375,8.214560508728027,-1.2693406343460083,3.941186428070069,4.883112907409668,down
7.910671234130859,-10.542776107788086,6.850651264190674,-1.0738694667816162,3.992497444152832,5.266724586486816,down
5.292923927307129,-8.341379165649414,5.72841739654541,-0.1661504507064819,4.021818161010742,5.471969604492188,down
2.809173583984375,-7.618747234344482,5.328815937042236,0.3946073353290558,4.04869556427002,5.482964992523193,down
2.809173583984375,-7.618747234344482,5.328815937042236,1.3182083368301392,4.1268839836120605,5.471969604492188,down
-0.1579262912273407,-5.61116886138916,2.943171739578247,1.6969337463378906,4.198963642120361,5.489073276519775,down
-3.493520975112915,-3.969692707061768,2.2755744457244877,2.2747950553894043,4.2514967918396,5.357130527496338,down
-4.852644443511963,-4.247260093688965,2.5292134284973145,2.907633066177368,4.297921180725098,5.167767524719238,down
-6.967899799346924,-2.931207656860352,3.3092737197875977,2.9833779335021973,4.31013822555542,5.143333911895752,down
-9.607183456420898,-0.94037926197052,3.739981651306152,3.2448205947875977,4.366336345672607,4.906324863433838,down
-9.607183456420898,-0.94037926197052,3.739981651306152,3.1165428161621094,4.493391990661621,4.608231544494629,down
-10.810771942138672,-2.1056838035583496,4.275973796844482,2.837996244430542,4.528821468353272,4.444524765014648,down
-10.48534870147705,-4.407578945159912,4.989035129547119,2.1795029640197754,4.4274210929870605,4.231949806213379,down
-10.291529655456545,-4.204189300537109,4.067798614501953,1.980366826057434,4.21851110458374,4.030370235443115,down
-9.332008361816406,-3.5461630821228027,3.292524099349976,2.0866541862487797,4.121997356414795,3.8923187255859375,down
-9.332008361816406,-3.5461630821228027,3.292524099349976,2.250361204147339,3.873993158340454,3.549022674560547,down
-8.044669151306152,-2.2779672145843506,2.4502503871917725,2.1941633224487305,3.699290990829468,3.387758731842041,down
-7.2502522468566895,-2.5052852630615234,2.12961220741272,1.771456956863403,3.2997968196868896,3.075005054473877,down
-5.8265228271484375,-2.6967110633850098,1.6893328428268433,1.3585243225097656,2.827000856399536,2.798902034759521,down
-5.070391178131104,-2.469392776489258,1.4404792785644531,1.227802872657776,2.569223642349243,2.6742892265319824,down
-4.144368648529053,-1.8448662757873533,0.8350951075553894,1.0738694667816162,2.131856918334961,2.410403251647949,down
-4.144368648529053,-1.8448662757873533,0.8350951075553894,1.0934165716171265,1.7323628664016724,2.1477389335632324,down
-4.309473514556885,-1.8448662757873533,0.12921242415905,1.1105202436447144,1.5564388036727903,2.021904230117798,down
-4.922036170959473,1.129412293434143,-0.4283152520656585,1.0506572723388672,1.2510151863098145,1.803221106529236,down
-5.235496044158936,1.4189438819885254,-0.7034898400306702,0.893058717250824,0.9529216885566713,1.6065282821655271,down
-5.869593620300293,2.342573404312134,-1.9716858863830569,0.818535327911377,0.8234220743179321,1.5136795043945312,down
-5.869593620300293,2.342573404312134,-1.9716858863830569,0.7159129977226257,0.5851916074752808,1.3120999336242676,down
-6.372087001800537,2.57228422164917,-3.44327163696289,0.6316159963607788,0.4471401870250702,1.1838220357894895,down
-6.601797103881836,2.622533798217773,-3.747160196304321,0.3713951408863067,0.1588202863931656,0.929709494113922,down
-6.582655429840088,2.67278265953064,-4.041477203369141,0.0537545569241046,-0.1221694499254226,0.6584933400154114,down
-6.685546875,3.029313325881958,-4.29033088684082,-0.0720799788832664,-0.2577775418758392,0.5216635465621948,down
-5.874379634857178,2.900100946426392,-5.0201416015625,-0.2272351831197738,-0.4898994863033294,0.2761029601097107,down
-5.874379634857178,2.900100946426392,-5.0201416015625,-0.2345653474330902,-0.7452336549758911,0.0293206684291362,down
-5.807380676269531,2.617748022079468,-6.087340831756592,-0.2626643180847168,-0.8747332096099854,-0.0879620015621185,down
-5.036891937255859,2.3330020904541016,-6.479763507843018,-0.4141544103622436,-1.1691615581512451,-0.2443388998508453,down
-2.596212387084961,1.8185452222824097,-7.154539585113525,-0.5277720093727112,-1.3621894121170044,-0.3139754831790924,down
0.8949156999588013,1.88075852394104,-9.600004196166992,-0.7000309228897095,-1.7775654792785645,-0.4642439186573028,down
0.8949156999588013,1.88075852394104,-9.600004196166992,-0.8820634484291077,-2.2430310249328613,-0.6670452356338501,down
5.37906551361084,2.47896409034729,-15.141780853271484,-1.067760944366455,-2.522799253463745,-0.8002098798751831,down
11.13619613647461,1.6079767942428589,-18.948760986328125,-1.7763437032699585,-3.3046836853027344,-1.1227372884750366,down
21.11665916442871,-1.8592231273651123,-20.90130615234375,-2.2723517417907715,-4.422533988952637,-1.5136795043945312,down
26.91446876525879,-1.2562319040298462,-23.748764038085938,-2.3273282051086426,-5.177541255950928,-1.6798299551010132,down
28.3716983795166,-3.3547375202178955,-26.179872512817383,-2.0793240070343018,-6.864701271057129,-2.091541051864624,down
28.3716983795166,-3.3547375202178955,-26.179872512817383,-0.9370396137237548,-8.709460258483887,-1.9449377059936523,down
36.62214660644531,-2.244467735290528,-20.781665802001957,-0.0244338884949684,-9.8566312789917,-1.7592401504516602,down
47.363529205322266,1.031306505203247,-5.670989990234375,1.3011046648025513,-12.033690452575684,-1.3120999336242676,down
50.91447830200195,-2.770888566970825,7.420143127441406,1.1764918565750122,-12.72516918182373,-1.031110167503357,down
49.54817962646485,0.5431707501411438,17.58724594116211,-0.129499614238739,-12.837565422058104,-0.6817055344581604,down
49.54817962646485,0.5431707501411438,17.58724594116211,-1.2852225303649902,-11.782021522521973,-1.0897514820098877,down
42.9990234375,-2.950350284576416,23.021345138549805,-2.120861768722534,-11.074660301208496,-1.2045906782150269,down
42.118465423583984,-9.461220741271973,31.326833724975582,-3.5600175857543945,-9.785773277282717,-1.4367127418518066,down
35.87080383300781,-7.683353424072266,39.08197021484375,-3.6198809146881104,-8.685026168823242,-1.47825026512146,down
29.16132926940918,-8.681159973144531,34.41118240356445,-3.413414478302002,-7.916580200195312,-1.3658545017242432,down
29.16132926940918,-8.681159973144531,34.41118240356445,-3.062788248062134,-6.011958599090576,-0.9785772562026978,down
25.651058197021484,-8.236095428466797,29.168506622314453,-2.797680377960205,-4.658320903778076,-0.4935645759105682,down
19.743179321289062,-8.068597793579102,29.29772186279297,-2.707274913787842,-4.168421268463135,-0.3249707520008087,down
14.32343578338623,-4.230510234832764,28.874191284179688,-2.085432529449463,-3.546579122543335,-0.2773246467113495,down
11.408977508544922,-2.139183282852173,22.293928146362305,-1.6834949254989624,-3.167853593826294,-0.3066453039646148,down
9.621540069580078,-4.802394866943359,16.54876136779785,-2.019460916519165,-2.2723517417907715,-0.5094466209411621,down
9.621540069580078,-4.802394866943359,16.54876136779785,-2.98582124710083,-1.5918679237365725,-0.8295305371284485,down
8.839086532592773,-7.683353424072266,14.455041885375977,-3.140976428985596,-1.397618532180786,-0.9504783153533936,down
8.638089179992676,-7.855636119842529,13.191631317138672,-2.431172132492065,-1.1031900644302368,-0.9700254201889038,down
7.932207107543945,-6.154339790344238,11.344371795654297,-1.2962177991867063,-0.9358179569244384,-0.8063183426856995,down
7.57806921005249,-5.0201416015625,9.76989459991455,-0.891836941242218,-0.8038749694824219,-0.6951441764831543,down
7.57806921005249,-5.0201416015625,9.76989459991455,-0.4532486498355865,-0.5790832042694092,-0.4275930821895599,down
7.793423175811768,-4.156332969665527,8.451449394226074,-0.2932066619396209,-0.4092676639556885,-0.2186833024024963,down
8.049454689025879,-4.036691665649414,7.77906608581543,-0.2956500649452209,-0.3213056325912475,-0.1221694499254226,down
8.059026718139648,-3.414557933807373,7.408178806304932,-0.310310423374176,-0.1673721522092819,0.0219905003905296,down
8.154739379882812,-2.912065029144287,6.015556335449219,-0.3127537965774536,-0.0769667476415634,0.069636583328247,#
7.953742504119873,-3.345165967941284,5.015356063842773,-0.4556920528411865,0.1062874197959899,0.0855186134576797,#
7.953742504119873,-3.345165967941284,5.015356063842773,-0.5900784730911255,0.2125748395919799,0.0659715011715889,#
7.963313579559326,-3.352344274520874,5.044069766998291,-0.5436540246009827,0.2137965410947799,0.0513111688196659,#
7.783851623535156,-2.9862425327301025,5.280959606170654,-0.2944283783435821,0.178367406129837,0.0109952501952648,#
7.901099681854248,-2.5459630489349365,5.491527557373047,-0.1014006435871124,0.1539334952831268,0.0097735561430454,#
8.109275817871094,-2.227717876434326,5.146961212158203,-0.0390942245721817,0.1466033309698104,0.007330167107284,#
8.109275817871094,-2.227717876434326,5.146961212158203,-0.003665083553642,0.1685938388109207,-0.0207688063383102,#
8.315058708190918,-2.179861307144165,4.570291519165039,-0.1747023165225982,0.1942494213581085,-0.0671931952238082,#
8.530412673950195,-2.493321180343628,4.347758769989014,-0.2809897363185882,0.200357899069786,-0.0830752253532409,#
8.882158279418945,-2.5866410732269287,4.41475772857666,-0.3579564988613128,0.1795890927314758,-0.1014006435871124,#
8.934800148010254,-2.581855773925781,4.4027934074401855,-0.3261924386024475,0.1673721522092819,-0.0977355539798736,#
8.963513374328613,-2.4287149906158447,4.273581027984619,-0.2052446752786636,0.1637070626020431,-0.0610847249627113,#
8.963513374328613,-2.4287149906158447,4.273581027984619,-0.100178949534893,0.1673721522092819,-0.0109952501952648,#
8.925228118896484,-2.1415762901306152,4.1036906242370605,-0.0647498071193695,0.1710372269153595,0.0146603342145681,#
8.855835914611816,-2.00518536567688,4.048655986785889,-0.0635281130671501,0.178367406129837,0.0598630309104919,#
8.776873588562012,-1.8305093050003047,4.0079779624938965,-0.100178949534893,0.1918060332536697,0.1014006435871124,#
8.757731437683105,-1.6869399547576904,3.888336658477783,-0.1209477484226226,0.1979145109653473,0.1148392781615257,#
8.757731437683105,-1.6869399547576904,3.888336658477783,-0.1661504507064819,0.2101314514875412,0.130721315741539,#
8.678767204284668,-1.7443678379058838,3.7567315101623535,-0.2235700935125351,0.2199050188064575,0.1270562261343002,#
8.63330364227295,-1.8376877307891848,3.675375461578369,-0.2553341388702392,0.2150182276964187,0.1197260618209838,#
8.664410591125488,-1.94297194480896,3.617947816848755,-0.3017585575580597,0.1942494213581085,0.0952921733260154,#
8.60459041595459,-1.9334007501602173,3.622733592987061,-0.3042019307613373,0.178367406129837,0.0794101431965828,#
8.48016357421875,-1.931007981300354,3.680161237716675,-0.282211422920227,0.1429382413625717,0.0500894747674465,#
8.48016357421875,-1.931007981300354,3.680161237716675,-0.2516690790653229,0.1087308079004287,0.0256555844098329,#
8.535198211669922,-1.8424735069274905,3.751945972442627,-0.2406738102436065,0.0879620015621185,0.0146603342145681,#
8.475377082824707,-1.794616937637329,3.672982692718506,-0.2309002727270126,0.0488677769899368,-0.0085518611595034,#
8.441878318786621,-1.835294842720032,3.6610186100006095,-0.256555825471878,0.0122169442474842,-0.0354291386902332,#
8.449056625366211,-1.8999011516571045,3.728017807006836,-0.2773246467113495,-0.0061084721237421,-0.0537545569241046,#
8.449056625366211,-1.8999011516571045,3.728017807006836,-0.3029802441596985,-0.0390942245721817,-0.0916270837187767,#
8.45862865447998,-2.043470621109009,3.7734813690185542,-0.3225273489952087,-0.0561979450285434,-0.128277912735939,#
8.525627136230469,-2.196611166000366,3.730410575866699,-0.3310791850090027,-0.0671931952238082,-0.1429382413625717,#
8.559126853942871,-2.3569302558898926,3.742374420166016,-0.3359659910202026,-0.0842969194054603,-0.1612636744976043,#
8.638089179992676,-2.543570280075073,3.905086755752564,-0.3188622593879699,-0.0940704718232154,-0.1649287492036819,#
8.745766639709473,-2.4598214626312256,4.070191383361816,-0.2467822879552841,-0.1172826737165451,-0.1514901220798492,#
8.745766639709473,-2.4598214626312256,4.070191383361816,-0.1258345395326614,-0.1343863904476165,-0.1246128380298614,#
8.628519058227539,-2.263610363006592,4.180261135101318,-0.069636583328247,-0.1380514800548553,-0.1099525094032287,#
8.700303077697754,-2.1846470832824707,4.089334011077881,-0.0354291386902332,-0.1270562261343002,-0.0928487852215766,#
8.688338279724121,-2.3066811561584477,4.034298896789551,-0.1075091138482093,-0.1160609796643257,-0.0904053896665573,#
8.71226692199707,-2.4717857837677,4.082155227661133,-0.155155211687088,-0.1087308079004287,-0.0940704718232154,#
8.71226692199707,-2.4717857837677,4.082155227661133,-0.2235700935125351,-0.100178949534893,-0.1014006435871124,#
8.678767204284668,-2.447857618331909,4.180261135101318,-0.2309002727270126,-0.0940704718232154,-0.1038440242409706,#
8.688338279724121,-2.380858421325684,4.23529577255249,-0.2174616158008575,-0.0891837030649185,-0.1038440242409706,#
8.72662353515625,-2.3976082801818848,4.170689582824707,-0.199136197566986,-0.0745233595371246,-0.1014006435871124,#
8.779266357421875,-2.421536445617676,4.139583110809326,-0.2089097648859024,-0.0671931952238082,-0.0989572554826736,#
8.650053977966309,-2.4813570976257324,4.122833251953125,-0.2418954968452453,-0.0549762547016143,-0.0928487852215766,#
8.650053977966309,-2.4813570976257324,4.122833251953125,-0.2480039745569229,-0.0464243926107883,-0.0830752253532409,#
8.733802795410156,-2.531606435775757,4.1659040451049805,-0.235787034034729,-0.0452026948332786,-0.0769667476415634,#
8.695517539978027,-2.5004994869232178,4.130012035369873,-0.1881409436464309,-0.0427593067288398,-0.0561979450285434,#
8.70508861541748,-2.431107759475708,4.125226020812988,-0.1075091138482093,-0.0439810007810592,-0.0366508327424526,#
8.774479866027832,-2.297109842300415,4.027120590209961,-0.0745233595371246,-0.0427593067288398,-0.0280989725142717,#
8.774479866027832,-2.297109842300415,4.027120590209961,-0.0476460866630077,-0.0354291386902332,-0.0146603342145681,#
8.71944522857666,-2.2851457595825195,3.938585996627808,-0.0537545569241046,-0.0232121963053941,-0.0061084721237421,#
8.740981101989746,-2.249253273010254,3.8979082107543945,-0.0635281130671501,-0.0183254163712263,-0.003665083553642,#
8.774479866027832,-2.287538528442383,3.950549840927124,-0.0818535313010215,-0.0085518611595034,0.0024433890357613,#
8.695517539978027,-2.297109842300415,3.876372575759888,-0.0867403075098991,-0.0048867780715227,0.0048867780715227,#
8.635696411132812,-2.287538528442383,3.780659914016724,-0.0818535313010215,0.0024433890357613,0.0085518611595034,#
8.635696411132812,-2.287538528442383,3.780659914016724,-0.0879620015621185,0.0012216945178806,0.0109952501952648,#
8.72662353515625,-2.304288148880005,3.76151704788208,-0.0928487852215766,-0.0012216945178806,0.0109952501952648,#
8.640481948852539,-2.304288148880005,3.845265865325928,-0.0989572554826736,-0.0061084721237421,0.003665083553642,#
8.683552742004395,-2.297109842300415,3.818945169448853,-0.0952921733260154,-0.0146603342145681,-0.007330167107284,#
8.669197082519531,-2.3784656524658203,3.7902309894561768,-0.0940704718232154,-0.0183254163712263,-0.0122169442474842,#
8.669197082519531,-2.3784656524658203,3.7902309894561768,-0.0952921733260154,-0.0232121963053941,-0.0232121963053941,#
8.693124771118164,-2.400001049041748,3.7256247997283936,-0.0977355539798736,-0.0232121963053941,-0.0256555844098329,#
8.760124206542969,-2.3258235454559326,3.7734813690185542,-0.0940704718232154,-0.0256555844098329,-0.0293206684291362,#
8.702695846557617,-2.3234307765960693,3.7567315101623535,-0.0940704718232154,-0.0219905003905296,-0.0268772784620523,#
8.740981101989746,-2.2995026111602783,3.783052444458008,-0.0928487852215766,-0.0219905003905296,-0.0256555844098329,#
8.886943817138672,-2.380858421325684,3.7232320308685294,-0.0928487852215766,-0.0134386392310261,-0.0195471122860908,#
8.886943817138672,-2.380858421325684,3.7232320308685294,-0.1111741960048675,-0.0024433890357613,-0.0158820282667875,#
8.815157890319824,-2.342573404312134,3.768695831298828,-0.123391143977642,0.0012216945178806,-0.0158820282667875,#
8.83669376373291,-2.400001049041748,3.687339782714844,-0.1417165547609329,0.0097735561430454,-0.0158820282667875,#
8.827122688293457,-2.3736801147460938,3.6921253204345694,-0.1514901220798492,0.0134386392310261,-0.0171037223190069,#
8.755338668823242,-2.423929214477539,3.6323046684265137,-0.1563768982887268,0.0146603342145681,-0.0183254163712263,#
8.755338668823242,-2.423929214477539,3.6323046684265137,-0.155155211687088,0.0134386392310261,-0.0183254163712263,#
8.760124206542969,-2.390429735183716,3.6251261234283447,-0.1539334952831268,0.0134386392310261,-0.0171037223190069,#
8.807979583740234,-2.3617160320281982,3.6394832134246826,-0.1490467190742492,0.0085518611595034,-0.0134386392310261,#
8.807979583740234,-2.3473589420318604,3.615554809570313,-0.1417165547609329,0.0024433890357613,-0.0122169442474842,#
8.827122688293457,-2.364108800888061,3.5461630821228027,-0.1380514800548553,0.0024433890357613,-0.0134386392310261,#
8.796016693115234,-2.395215511322021,3.5581274032592773,-0.1417165547609329,-0.007330167107284,-0.0183254163712263,#
8.796016693115234,-2.395215511322021,3.5581274032592773,-0.1478250324726104,-0.0122169442474842,-0.0268772784620523,#
8.800802230834961,-2.411965131759644,3.5748770236968994,-0.1466033309698104,-0.0195471122860908,-0.0305423624813556,#
8.834300994873047,-2.4717857837677,3.5700912475585938,-0.1392731666564941,-0.031764056533575,-0.0378725305199623,#
8.772088050842285,-2.44067907333374,3.649054527282715,-0.1160609796643257,-0.0415376126766204,-0.0415376126766204,#
8.800802230834961,-2.5076780319213867,3.572484016418457,-0.1038440242409706,-0.0452026948332786,-0.0415376126766204,#
8.800802230834961,-2.5076780319213867,3.572484016418457,-0.0891837030649185,-0.0513111688196659,-0.0427593067288398,#
8.762516975402832,-2.4670000076293945,3.5676987171173096,-0.0867403075098991,-0.0525328628718853,-0.0427593067288398,#
8.839086532592773,-2.47896409034729,3.589233875274658,-0.0781884491443634,-0.0586413368582725,-0.0464243926107883,#
8.874979019165039,-2.4023938179016118,3.6634113788604736,-0.0684148892760276,-0.0647498071193695,-0.0488677769899368,#
8.865407943725586,-2.5052852630615234,3.610769510269165,-0.0610847249627113,-0.0684148892760276,-0.0500894747674465,#
8.793622970581055,-2.4741785526275635,3.658626079559326,-0.0574196390807628,-0.0708582773804664,-0.0525328628718853,#
8.793622970581055,-2.4741785526275635,3.658626079559326,-0.0586413368582725,-0.0708582773804664,-0.0549762547016143,#
8.807979583740234,-2.452643394470215,3.649054527282715,-0.0598630309104919,-0.069636583328247,-0.0549762547016143,#
8.760124206542969,-2.4095723628997803,3.651447057723999,-0.0574196390807628,-0.0671931952238082,-0.0549762547016143,#
8.779266357421875,-2.4670000076293945,3.6370904445648193,-0.0464243926107883,-0.0647498071193695,-0.0525328628718853,#
8.807979583740234,-2.4885356426239014,3.594019651412964,-0.040315918624401,-0.0635281130671501,-0.0525328628718853,#
8.807979583740234,-2.4885356426239014,3.594019651412964,-0.040315918624401,-0.0586413368582725,-0.0525328628718853,#
8.865407943725586,-2.502892255783081,3.601198196411133,-0.040315918624401,-0.0598630309104919,-0.0513111688196659,#
8.839086532592773,-2.4981069564819336,3.644268989562988,-0.0390942245721817,-0.0586413368582725,-0.0513111688196659,#
8.848658561706543,-2.4358932971954346,3.6681969165802,-0.0329857505857944,-0.0525328628718853,-0.0476460866630077,#
8.793622970581055,-2.550748825073242,3.598805427551269,-0.0293206684291362,-0.0500894747674465,-0.0452026948332786,#
8.82233715057373,-2.455036163330078,3.555734634399414,-0.0232121963053941,-0.0415376126766204,-0.0390942245721817,#
8.82233715057373,-2.455036163330078,3.555734634399414,-0.0195471122860908,-0.0342074446380138,-0.031764056533575,#
8.781659126281738,-2.51007080078125,3.555734634399414,-0.0183254163712263,-0.0293206684291362,-0.0293206684291362,#
8.819944381713867,-2.502892255783081,3.601198196411133,-0.0171037223190069,-0.0244338884949684,-0.0244338884949684,#
8.865407943725586,-2.4023938179016118,3.622733592987061,-0.0134386392310261,-0.0183254163712263,-0.0207688063383102,#
8.86780071258545,-2.493321180343628,3.5748770236968994,-0.0146603342145681,-0.0158820282667875,-0.0207688063383102,#
8.86780071258545,-2.493321180343628,3.5748770236968994,-0.0195471122860908,-0.0109952501952648,-0.0219905003905296,#
8.860621452331543,-2.445464611053467,3.6562328338623047,-0.0232121963053941,-0.007330167107284,-0.0219905003905296,#
8.84626579284668,-2.4502503871917725,3.5748770236968994,-0.0268772784620523,-0.0012216945178806,-0.0232121963053941,#
8.853443145751953,-2.4430718421936035,3.5700912475585938,-0.0293206684291362,0.0061084721237421,-0.0219905003905296,#
8.827122688293457,-2.4957141876220703,3.594019651412964,-0.0305423624813556,0.0085518611595034,-0.0207688063383102,#
8.781659126281738,-2.5004994869232178,3.493520975112915,-0.0329857505857944,0.0146603342145681,-0.0158820282667875,#
8.781659126281738,-2.5004994869232178,3.493520975112915,-0.0354291386902332,0.0207688063383102,-0.0097735561430454,#
8.772088050842285,-2.4430718421936035,3.500699520111084,-0.0354291386902332,0.0219905003905296,-0.0048867780715227,#
8.815157890319824,-2.3784656524658203,3.510270833969116,-0.0305423624813556,0.0232121963053941,-0.0012216945178806,#
8.889336585998535,-2.4502503871917725,3.464807271957397,-0.0244338884949684,0.0195471122860908,-0.0012216945178806,#
8.803194999694824,-2.4047868251800537,3.548555850982666,-0.0195471122860908,0.0158820282667875,0.0024433890357613,#
8.803194999694824,-2.4047868251800537,3.548555850982666,-0.0097735561430454,0.0122169442474842,0.003665083553642,#
8.784051895141602,-2.4430718421936035,3.4743783473968506,-0.0048867780715227,0.0085518611595034,0.003665083553642,#
8.839086532592773,-2.3784656524658203,3.491128206253052,0.0085518611595034,0.0048867780715227,0.0061084721237421,#
8.800802230834961,-2.321038007736206,3.4408791065216064,0.0171037223190069,0.003665083553642,0.0061084721237421,#
8.874979019165039,-2.3258235454559326,3.445664882659912,0.0183254163712263,0.0024433890357613,0.0048867780715227,#
8.898907661437988,-2.3712873458862305,3.4408791065216064,0.0097735561430454,0.0024433890357613,0.0024433890357613,#
8.898907661437988,-2.3712873458862305,3.4408791065216064,-0.0061084721237421,0.0048867780715227,-0.0012216945178806,#
8.839086532592773,-2.364108800888061,3.4983065128326416,-0.007330167107284,0.0061084721237421,-0.0012216945178806,#
8.848658561706543,-2.3473589420318604,3.460021495819092,-0.0085518611595034,0.007330167107284,-0.0012216945178806,#
8.817551612854004,-2.3090739250183105,3.38823676109314,-0.0122169442474842,0.0085518611595034,-0.0012216945178806,#
8.798408508300781,-2.3234307765960693,3.44327163696289,-0.0158820282667875,0.0109952501952648,-0.0012216945178806,#
8.798408508300781,-2.3234307765960693,3.44327163696289,-0.0268772784620523,0.0122169442474842,-0.003665083553642,#
8.810372352600098,-2.328216552734375,3.476771354675293,-0.0329857505857944,0.0122169442474842,-0.0061084721237421,#
8.793622970581055,-2.3497519493103027,3.414557933807373,-0.0427593067288398,0.0109952501952648,-0.0134386392310261,#
8.874979019165039,-2.390429735183716,3.4408791065216064,-0.0488677769899368,0.0085518611595034,-0.0171037223190069,#
8.774479866027832,-2.3330020904541016,3.4097721576690674,-0.0513111688196659,0.007330167107284,-0.0195471122860908,#
8.872586250305176,-2.421536445617676,3.4241292476654053,-0.0525328628718853,0.0048867780715227,-0.0207688063383102,#
8.872586250305176,-2.421536445617676,3.4241292476654053,-0.0500894747674465,0.0012216945178806,-0.0183254163712263,#
8.870193481445312,-2.4287149906158447,3.433700561523437,-0.0476460866630077,0.0012216945178806,-0.0171037223190069,#
8.843873023986816,-2.337787628173828,3.4719858169555664,-0.0488677769899368,0.0012216945178806,-0.0158820282667875,#
8.863015174865723,-2.4095723628997803,3.44327163696289,-0.0549762547016143,0.0012216945178806,-0.0146603342145681,#
8.870193481445312,-2.421536445617676,3.486342430114746,-0.0574196390807628,0.0024433890357613,-0.0146603342145681,#
8.870193481445312,-2.421536445617676,3.486342430114746,-0.0623064190149307,0.0012216945178806,-0.0158820282667875,#
8.860621452331543,-2.3976082801818848,3.4672000408172607,-0.0623064190149307,0.003665083553642,-0.0146603342145681,#
8.779266357421875,-2.376072883605957,3.469593048095703,-0.0610847249627113,0.003665083553642,-0.0122169442474842,#
8.865407943725586,-2.3880369663238525,3.436093330383301,-0.0610847249627113,0.003665083553642,-0.0097735561430454,#
8.82233715057373,-2.328216552734375,3.4743783473968506,-0.0610847249627113,0.003665083553642,-0.0097735561430454,#
8.810372352600098,-2.4047868251800537,3.438485860824585,-0.0647498071193695,0.0024433890357613,-0.0122169442474842,#
8.810372352600098,-2.4047868251800537,3.438485860824585,-0.0635281130671501,0.0024433890357613,-0.0134386392310261,#
8.841480255126953,-2.400001049041748,3.4480574131011963,-0.0635281130671501,0.0024433890357613,-0.0146603342145681,#
8.841480255126953,-2.4813570976257324,3.414557933807373,-0.0684148892760276,0.003665083553642,-0.0134386392310261,#
8.800802230834961,-2.4335007667541504,3.45045018196106,-0.0720799788832664,0.003665083553642,-0.0097735561430454,#
8.853443145751953,-2.4574286937713623,3.445664882659912,-0.0733016654849052,0.003665083553642,-0.0085518611595034,#
8.853443145751953,-2.4574286937713623,3.445664882659912,-0.0659715011715889,0.003665083553642,-0.0048867780715227,#
8.879764556884766,-2.455036163330078,3.431307554244995,-0.0635281130671501,0.003665083553642,-0.003665083553642,#
8.839086532592773,-2.452643394470215,3.5509488582611084,-0.0598630309104919,-0.0024433890357613,-0.003665083553642,#
8.84626579284668,-2.414358139038086,3.452842950820923,-0.0574196390807628,-0.0048867780715227,-0.0024433890357613,#
8.9371919631958,-2.4813570976257324,3.45045018196106,-0.0574196390807628,-0.003665083553642,-0.0024433890357613,#
8.863015174865723,-2.4335007667541504,3.421736478805542,-0.0561979450285434,-0.007330167107284,-0.0024433890357613,#
8.863015174865723,-2.4335007667541504,3.421736478805542,-0.0561979450285434,-0.007330167107284,0.0024433890357613,#
8.86780071258545,-2.395215511322021,3.4815566539764404,-0.0537545569241046,-0.007330167107284,0.0048867780715227,#
8.757731437683105,-2.423929214477539,3.445664882659912,-0.0439810007810592,-0.0085518611595034,0.0061084721237421,#
8.800802230834961,-2.4047868251800537,3.431307554244995,-0.0378725305199623,-0.0097735561430454,0.007330167107284,#
8.83669376373291,-2.3234307765960693,3.4408791065216064,-0.031764056533575,-0.0109952501952648,0.007330167107284,#
8.83669376373291,-2.3234307765960693,3.4408791065216064,-0.0305423624813556,-0.0097735561430454,0.0061084721237421,#
8.815157890319824,-2.4717857837677,3.373879909515381,-0.0329857505857944,-0.0085518611595034,0.0061084721237421,#
8.85105037689209,-2.445464611053467,3.4169507026672363,-0.0439810007810592,-0.007330167107284,0.003665083553642,#
8.839086532592773,-2.44067907333374,3.510270833969116,-0.0525328628718853,-0.0061084721237421,0.0012216945178806,#
8.843873023986816,-2.4646072387695312,3.452842950820923,-0.0525328628718853,-0.0048867780715227,0.0012216945178806,#
8.941977500915527,-2.4957141876220703,3.407379388809204,-0.0513111688196659,-0.007330167107284,0.0024433890357613,#
8.941977500915527,-2.4957141876220703,3.407379388809204,-0.0488677769899368,-0.003665083553642,0.0024433890357613,#
8.886943817138672,-2.359323024749756,3.426522016525269,-0.0500894747674465,-0.003665083553642,0.0012216945178806,#
8.968299865722656,-2.364108800888061,3.4241292476654053,-0.0623064190149307,-0.003665083553642,-0.0061084721237421,#
8.834300994873047,-2.289931058883667,3.452842950820923,-0.0794101431965828,-0.0024433890357613,-0.0109952501952648,#
8.894121170043945,-2.337787628173828,3.369094133377075,-0.1588202863931656,0.0012216945178806,-0.0232121963053941,#
8.894121170043945,-2.337787628173828,3.369094133377075,-0.2663294076919555,0.003665083553642,-0.031764056533575,#
8.82951545715332,-2.132004976272583,3.3427734375,-0.342074453830719,0.0024433890357613,-0.0342074446380138,#
8.839086532592773,-1.9669002294540403,3.4480574131011963,-0.5961868762969971,0.0048867780715227,-0.040315918624401,#
9.083154678344728,-1.5242280960083008,3.5294132232666016,-0.9468132257461548,0.0061084721237421,-0.0488677769899368,#
9.425328254699709,-1.0791629552841189,3.38105845451355,-1.1752701997756958,0.0097735561430454,-0.0659715011715889,#
9.425328254699709,-1.0791629552841189,3.38105845451355,-1.7396929264068604,0.0439810007810592,-0.130721315741539,#
9.458827018737791,-1.574477195739746,3.10109806060791,-2.4922568798065186,0.2174616158008575,-0.2345653474330902,#
9.463613510131836,-1.584048628807068,3.838087558746338,-2.9662742614746094,0.3151971697807312,-0.2858764827251434,#
9.841679573059082,-1.741974949836731,4.208974838256836,-4.031591892242432,0.5522059202194214,-0.3994940817356109,#
10.389636039733888,-3.9529430866241455,3.38823676109314,-4.714519023895264,0.7232431173324585,-0.42270627617836,#
10.750951766967772,-7.850851535797119,2.3976082801818848,-6.394349098205566,1.1288456916809082,-0.2895416021347046,#
10.750951766967772,-7.850851535797119,2.3976082801818848,-7.630703926086426,1.4709200859069824,0.1185043603181839,#
10.40877914428711,-10.581062316894531,2.7254250049591064,-7.76997709274292,1.5784293413162231,0.3982723951339721,#
9.753145217895508,-12.215359687805176,2.8043880462646484,-7.390029907226562,1.593089580535889,1.0066763162612915,#
8.702695846557617,-12.198609352111816,2.203789472579956,-6.322268962860107,1.4208307266235352,1.6297403573989868,#
8.219346046447754,-13.488340377807615,1.1724830865859983,-5.695539474487305,1.2913310527801514,1.8899613618850708,#
8.219346046447754,-13.488340377807615,1.1724830865859983,-4.396878719329834,0.9675819873809814,2.3126676082611084,#
8.24566650390625,-14.213366508483888,0.9571290016174316,-3.1898443698883057,0.5888567566871643,2.7756898403167725,#
7.044469833374023,-13.16770362854004,1.9812570810317995,-2.66207218170166,0.445918470621109,2.973604440689087,#
5.807380676269531,-12.612567901611328,2.0554347038269043,-1.7983342409133911,0.2748812437057495,3.303461790084839,#
5.680561065673828,-12.256037712097168,0.2201396822929382,-1.6541743278503418,0.2394521236419677,3.467169046401977,#
4.493720531463623,-13.60080337524414,-0.2153540551662445,-2.354205369949341,0.2186833024024963,3.76404070854187,#
4.493720531463623,-13.60080337524414,-0.2153540551662445,-3.2411556243896484,0.0720799788832664,3.871549844741821,#
3.0963122844696045,-14.95035457611084,0.236889436841011,-3.303461790084839,-0.0195471122860908,3.9472949504852295,#
2.313859462738037,-14.835500717163086,1.6773687601089478,-2.3823041915893555,-0.178367406129837,4.019374847412109,#
2.3712873458862305,-13.014562606811523,2.502892255783081,-0.9578084945678712,-0.0940704718232154,4.081681251525879,#
3.0317063331604004,-11.863614082336426,1.998006820678711,-0.445918470621109,0.0366508327424526,4.117110252380371,#
3.0317063331604004,-11.863614082336426,1.998006820678711,-0.0586413368582725,0.3298574984073639,4.114666938781738,#
3.653840303421021,-11.296515464782717,1.1150553226470947,-0.2480039745569229,0.5131116509437561,4.014488220214844,#
4.089334011077881,-11.227123260498049,0.1100698411464691,-0.3481829464435577,0.5534276366233826,3.928969383239746,#
4.412364959716797,-10.492527961730955,-1.1198409795761108,-0.2797680497169494,0.5558710098266602,3.709064483642578,left
4.280759334564209,-9.257830619812012,-1.782652735710144,-0.100178949534893,0.5057815313339233,3.583229780197144,left
3.8979082107543945,-8.087740898132324,-1.37587308883667,0.3506263196468353,0.3432961404323578,3.303461790084839,left
3.8979082107543945,-8.087740898132324,-1.37587308883667,0.6878139972686768,0.1747023165225982,2.9980382919311523,left
2.89052963256836,-7.860422611236572,-1.0719845294952393,0.7647807598114014,0.1331647038459777,2.8416614532470703,left
2.2013967037200928,-8.0350980758667,-2.146361827850342,0.684148907661438,0.1148392781615257,2.553341627120972,left
1.3519448041915894,-8.176274299621582,-2.967100143432617,0.4666872918605804,0.1062874197959899,2.334658145904541,left
0.3684946894645691,-8.621339797973633,-2.483749866485596,0.3994940817356109,0.0977355539798736,2.22714900970459,left
0.3684946894645691,-8.621339797973633,-2.483749866485596,0.4288147687911987,0.0781884491443634,2.0243477821350098,left
0.2009970992803573,-8.621339797973633,-1.5385849475860596,0.6743753552436829,0.0671931952238082,1.8838529586791992,left
-0.236889436841011,-8.12841796875,-1.6917256116867063,0.6792621612548828,0.0904053896665573,1.8215465545654297,left
-0.7776673436164856,-8.271987915039062,-2.390429735183716,0.1600419729948043,0.0818535313010215,1.715259075164795,left
-1.2299107313156128,-8.779266357421875,-2.7421746253967285,-0.2443388998508453,0.0513111688196659,1.6676130294799805,left
-1.4739787578582764,-8.767301559448242,-3.7232320308685294,-0.9089407324790956,-0.0293206684291362,1.5552170276641846,left
-1.4739787578582764,-8.767301559448242,-3.7232320308685294,-0.8515210747718811,-0.0806318372488021,1.452594757080078,left
-1.6510475873947144,-8.135597229003906,-4.369294166564941,-0.5277720093727112,-0.1160609796643257,1.3963968753814695,left
-1.6462620496749878,-7.635497093200684,-4.419543266296387,0.1160609796643257,-0.2064663618803024,1.2962177991867063,left
-1.887937068939209,-7.692924976348877,-4.35254430770874,0.1038440242409706,-0.3713951408863067,1.2632319927215576,left
-2.47896409034729,-7.563712120056152,-4.969892501831055,-0.0659715011715889,-0.4202629029750824,1.225359559059143,left
-2.47896409034729,-7.563712120056152,-4.969892501831055,-0.3799469769001007,-0.5338804721832275,1.148392915725708,left
-2.84506630897522,-7.472784996032715,-5.381458282470703,-0.4764608442783355,-0.5803048610687256,1.045770525932312,left
-3.046063184738159,-6.7310099601745605,-6.996613025665283,-0.5241069197654724,-0.6621583700180054,1.0066763162612915,left
-4.0797624588012695,-5.742774486541748,-8.422735214233398,-0.6426112651824951,-0.5998519659042358,0.891836941242218,left
-4.146761417388916,-5.48674201965332,-9.906286239624023,-0.7440119385719299,-0.5607577562332153,0.8026533126831055,left
-2.021935224533081,-5.1637115478515625,-16.22812271118164,-1.1019684076309204,-0.4288147687911987,0.5998519659042358,left
-2.021935224533081,-5.1637115478515625,-16.22812271118164,-1.8814095258712769,-0.1172826737165451,0.4031591713428497,left
-0.2201396822929382,-5.625525951385498,-26.103302001953125,-2.4519410133361816,0.0293206684291362,0.2736595571041107,left
1.9740787744522093,-7.207180976867676,-33.75315475463867,-3.3865370750427246,-0.3530696928501129,-0.1062874197959899,left
11.344371795654297,-7.369894027709961,-28.888547897338867,-3.2558157444000244,-2.514247179031372,-0.4886777997016907,left
19.479969024658203,-6.321837425231934,-26.230119705200195,-2.6547420024871826,-4.244166851043701,-0.652384877204895,left
19.479969024658203,-6.321837425231934,-26.230119705200195,-0.4104893505573272,-7.570840835571289,-1.1044118404388428,left
21.695724487304688,-7.063612461090088,-27.0484676361084,0.31641885638237,-8.913482666015625,-1.3658545017242432,left
35.837303161621094,-7.824529647827148,-15.151352882385254,0.7256865501403809,-11.621978759765623,-1.7213674783706665,left
42.26921463012695,-13.256237030029297,7.377072334289551,0.818535327911377,-13.139324188232422,-1.9498244524002075,left
36.75136184692383,-13.04806137084961,20.166711807250977,0.8796200752258301,-13.095343589782717,-1.7897825241088867,left
25.93341064453125,-6.656832218170166,29.005794525146484,1.6541743278503418,-11.27868366241455,-0.8429691791534424,left
25.93341064453125,-6.656832218170166,29.005794525146484,1.288887619972229,-8.697243690490723,0.4178195297718048,left
17.632709503173828,-5.5106706619262695,27.07239532470703,0.155155211687088,-7.425458908081055,0.7733326554298401,left
16.967504501342773,-7.334001541137695,25.777877807617188,-1.666391372680664,-5.707756996154785,0.8441908955574036,left
12.272788047790527,-9.882357597351074,30.58745002746582,-2.1281917095184326,-4.359005928039551,0.5595360994338989,left
7.860422611236572,-9.183652877807615,26.44547462463379,-1.610193371772766,-3.8727715015411377,0.3970507085323334,left
7.860422611236572,-9.183652877807615,26.44547462463379,-0.5705313086509705,-3.101882219314575,0.1466033309698104,left
6.494120597839356,-9.674181938171388,19.93460464477539,-0.499673068523407,-2.337101697921753,0.0794101431965828,left
4.084547996520996,-11.24866008758545,15.976876258850098,-0.7024743556976318,-1.9290555715560915,0.0561979450285434,left
0.6317051649093628,-11.531012535095217,12.344571113586426,-0.786771297454834,-1.1752701997756958,0.003665083553642,left
-1.8281164169311523,-10.23888874053955,9.229117393493652,-0.6047387719154358,-0.8234220743179321,0.0061084721237421,left
-2.926422357559204,-8.537590980529785,6.195017814636231,-0.0867403075098991,-0.2150182276964187,0.0244338884949684,left
-2.926422357559204,-8.537590980529785,6.195017814636231,0.342074453830719,0.2296785563230514,-0.0183254163712263,left
-1.6510475873947144,-7.592426776885986,4.204189300537109,0.393385648727417,0.3762818872928619,-0.007330167107284,left
-0.2895315289497375,-7.494320392608643,3.206382274627685,0.282211422920227,0.5387672781944275,-0.0598630309104919,left
-0.1459621787071228,-7.714460372924805,2.567498683929444,0.1502684205770492,0.6389462351799011,-0.1673721522092819,left
-0.0717846825718879,-8.097311973571777,2.026720762252808,0.1258345395326614,0.6829272508621216,-0.2174616158008575,left
-0.0717846825718879,-8.097311973571777,2.026720762252808,0.3432961404323578,0.7427902817726135,-0.310310423374176,left
0.1411765366792678,-7.932207107543945,1.978864312171936,0.5644228458404541,0.7501204013824463,-0.3469612300395965,left
1.0552347898483276,-6.704688549041748,2.6057839393615723,0.7818844318389893,0.7598939538002014,-0.4092676639556885,left
2.2468602657318115,-5.297709465026856,3.103491306304932,0.6071821451187134,0.7232431173324585,-0.4703523814678192,left
1.8544375896453855,-5.553741931915283,3.280559778213501,0.3371876776218414,0.7012526392936707,-0.5082249045372009,left
1.1629117727279663,-6.26440954208374,2.9551358222961426,-0.1747023165225982,0.7098045349121094,-0.6560499668121338,left
1.1629117727279663,-6.26440954208374,2.9551358222961426,-0.2773246467113495,0.7574505805969238,-0.8014315962791443,left
1.0241280794143677,-6.5180487632751465,2.749353408813477,-0.1685938388109207,0.7757760286331177,-0.9077189564704896,left
1.852044701576233,-6.556333541870117,2.8187451362609863,0.1771456897258758,0.7525637745857239,-1.1080769300460815,left
1.244267821311951,-6.159125804901123,2.9216365814208984,0.4679089784622192,0.6914790868759155,-1.2693406343460083,left
0.0957129001617431,-6.534798622131348,2.900100946426392,0.4153760969638824,0.6914790868759155,-1.3756279945373535,left
0.0957129001617431,-6.534798622131348,2.900100946426392,0.1123958900570869,0.6377245187759399,-1.6395140886306765,left
0.4977070987224579,-7.724031925201416,3.2135608196258545,-0.0684148892760276,0.6132906079292297,-1.8142162561416624,left
2.4885356426239014,-8.104490280151367,3.400200843811035,-0.256555825471878,0.4850127100944519,-1.9669280052185056,left
3.194417953491211,-8.276773452758789,3.31166672706604,0.0085518611595034,0.4361449182033539,-1.9999139308929443,left
1.3639088869094849,-7.762316703796387,3.335594892501831,0.1563768982887268,0.4007157981395721,-2.010909080505371,left
1.184447169303894,-7.802994728088379,2.971885919570923,0.0708582773804664,0.4202629029750824,-2.090319395065308,left
1.184447169303894,-7.802994728088379,2.971885919570923,-0.6963658928871155,0.4239279925823211,-2.3065593242645264,left
2.644068956375122,-8.755338668823242,2.9862425327301025,-1.044548749923706,0.4019374847412109,-2.4262852668762207,left
3.531806230545044,-8.709875106811523,3.31166672706604,-1.40617036819458,0.4300364553928375,-2.5826621055603027,left
3.239881753921509,-9.516255378723145,3.6921253204345694,-1.429382562637329,0.4935645759105682,-2.605874300003052,left
2.2133607864379883,-10.114461898803713,3.2997026443481445,-1.4049487113952637,0.5375455617904663,-2.598544120788574,left
2.2133607864379883,-10.114461898803713,3.2997026443481445,-1.2913310527801514,0.6462763547897339,-2.685284376144409,left
2.225324869155884,-10.411171913146973,2.8187451362609863,-1.2534584999084473,0.6914790868759155,-2.80256724357605,left
3.751945972442627,-11.35633659362793,2.4335007667541504,-1.1068552732467651,0.6890356540679932,-3.0273590087890625,left
5.335994720458984,-11.665009498596191,2.823530912399292,-1.0494356155395508,0.6792621612548828,-3.100660562515259,left
6.412764549255371,-11.657832145690918,3.35713005065918,-0.9846857786178588,0.6853706240653992,-3.0566794872283936,left
6.778866291046143,-10.15035343170166,3.2135608196258545,-0.652384877204895,0.6878139972686768,-2.8416614532470703,left
6.778866291046143,-10.15035343170166,3.2135608196258545,-0.155155211687088,0.7207997441291809,-2.5386812686920166,left
6.563512325286865,-7.83410120010376,2.861815929412842,-0.0733016654849052,0.7598939538002014,-2.4177334308624268,left
6.860222339630127,-7.223931312561035,2.4909284114837646,-0.6927007436752319,0.7892146706581116,-2.340766429901123,#
7.420143127441406,-8.740981101989746,1.8161523342132568,-1.6211885213851929,0.8234220743179321,-2.516690492630005,#
7.245467185974121,-9.415757179260254,1.3112668991088867,-2.0732154846191406,0.8283088207244873,-2.594879150390625,#
7.245467185974121,-9.415757179260254,1.3112668991088867,-2.4494974613189697,0.8625163435935974,-2.7084968090057373,#
7.45364236831665,-10.152746200561523,1.4021940231323242,-2.355427026748657,0.8502993583679199,-2.71460509300232,#
7.668996810913086,-9.834501266479492,1.7802598476409912,-1.7323628664016724,0.786771297454834,-2.643746852874756,#
7.891529560089111,-8.331808090209961,1.794616937637329,-0.971247136592865,0.7464553117752075,-2.493478298187256,#
8.456235885620117,-7.381857395172119,1.782652735710144,-0.7488986849784851,0.7220214009284973,-2.415289878845215,#
8.860621452331543,-6.881758213043213,1.782652735710144,-0.5326588153839111,0.6560499668121338,-2.332214832305908,#
8.860621452331543,-6.881758213043213,1.782652735710144,-0.6230642199516296,0.6462763547897339,-2.2955639362335205,#
9.20997428894043,-6.539584159851074,1.660618782043457,-0.7733326554298401,0.660936713218689,-2.2760169506073,#
9.425328254699709,-6.709475040435791,1.3471590280532837,-1.141062617301941,0.7110261917114258,-2.2747950553894043,#
9.456435203552246,-7.365108013153076,0.8303093910217285,-1.4758068323135376,0.767224133014679,-2.26990818977356,#
9.391828536987305,-7.831708431243896,0.6747759580612183,-1.5747642517089844,0.7782194018363953,-2.235701084136963,#
9.391828536987305,-7.831708431243896,0.6747759580612183,-1.5674339532852173,0.7379034161567688,-2.102536201477051,#
9.382257461547852,-7.659425258636475,0.9571290016174316,-1.4635900259017944,0.7012526392936707,-2.0084657669067383,#
9.461220741271973,-7.264609336853027,1.56251323223114,-1.241241693496704,0.5839699506759644,-1.7592401504516602,#
9.516255378723145,-6.6352972984313965,1.88075852394104,-1.099524974822998,0.4776825606822967,-1.485580563545227,#
9.370293617248535,-6.173482418060303,1.6965112686157229,-1.0518789291381836,0.4385882914066314,-1.3560807704925537,#
9.174081802368164,-5.986842632293701,1.4093725681304932,-1.0518789291381836,0.3799469769001007,-1.119072198867798,#
9.174081802368164,-5.986842632293701,1.4093725681304932,-1.2106993198394775,0.3347443044185638,-0.911384105682373,#
8.965906143188477,-6.08016300201416,1.2490534782409668,-1.2840008735656738,0.3127537965774536,-0.8222004175186157,#
8.807979583740234,-5.924628734588623,1.361515998840332,-1.3670761585235596,0.2675510942935943,-0.6536065340042114,#
8.73619556427002,-5.730810642242432,1.6295121908187866,-1.3096565008163452,0.2260134816169738,-0.5094466209411621,#
8.621339797973633,-5.314458847045898,1.5601203441619873,-1.2497934103012085,0.2076880484819412,-0.445918470621109,#
8.621339797973633,-5.314458847045898,1.5601203441619873,-1.1520578861236572,0.1918060332536697,-0.3408527672290802,#
8.561518669128418,-5.247459888458252,1.423729419708252,-1.1141853332519531,0.1808107793331146,-0.3042019307613373,#
8.566305160522461,-5.249853134155273,1.4931212663650513,-1.0372185707092283,0.1588202863931656,-0.2467822879552841,#
8.647661209106445,-5.125426292419434,1.5672988891601562,-0.8955020904541016,0.1197260618209838,-0.2015795856714248,#
8.621339797973633,-5.084747791290283,1.832902193069458,-0.8148701786994934,0.1038440242409706,-0.1808107793331146,#
8.659625053405762,-4.756931304931641,1.8783657550811768,-0.6291726231575012,0.0733016654849052,-0.1392731666564941,#
8.659625053405762,-4.756931304931641,1.8783657550811768,-0.4373666048049927,0.0574196390807628,-0.0940704718232154,#
8.59501838684082,-4.354937553405762,1.8472589254379272,-0.3970507085323334,0.0525328628718853,-0.0769667476415634,#
8.528019905090332,-4.479363918304443,1.8209381103515625,-0.3897205293178558,0.0378725305199623,-0.0500894747674465,#
8.647661209106445,-4.465007305145264,1.940579175949097,-0.3530696928501129,0.0146603342145681,-0.0366508327424526,#
8.764908790588379,-4.5583271980285645,1.9932212829589844,-0.3005368411540985,0.0048867780715227,-0.0305423624813556,#
8.764908790588379,-4.5583271980285645,1.9932212829589844,-0.1490467190742492,-0.0183254163712263,-0.0134386392310261,#
8.939584732055664,-4.572684288024902,1.9286150932312007,-0.0549762547016143,-0.0256555844098329,-0.0012216945178806,#
9.03290557861328,-4.125226020812988,2.0003998279571533,0.130721315741539,-0.0415376126766204,0.0195471122860908,#
8.968299865722656,-3.8979082107543945,2.053041696548462,0.1172826737165451,-0.0415376126766204,0.0390942245721817,#
8.886943817138672,-3.924229145050049,2.1343977451324463,0.0965138673782348,-0.0452026948332786,0.0378725305199623,#
8.784051895141602,-3.998406410217285,2.179861307144165,0.0598630309104919,-0.0561979450285434,0.0452026948332786,#
8.784051895141602,-3.998406410217285,2.179861307144165,0.0488677769899368,-0.0574196390807628,0.0500894747674465,#
8.860621452331543,-4.108476161956787,2.1343977451324463,0.0733016654849052,-0.0598630309104919,0.0513111688196659,#
8.85105037689209,-3.9912283420562735,2.1367905139923096,0.1698155403137207,-0.0610847249627113,0.0549762547016143,#
8.913264274597168,-3.7878382205963135,2.1272192001342773,0.2101314514875412,-0.0561979450285434,0.0549762547016143,#
8.839086532592773,-3.5916268825531006,2.0673987865448,0.2211267054080963,-0.0415376126766204,0.0513111688196659,#
8.839086532592773,-3.5916268825531006,2.0673987865448,0.1417165547609329,-0.0244338884949684,0.0427593067288398,#
8.889336585998535,-3.696911096572876,2.0027925968170166,0.0965138673782348,-0.0158820282667875,0.0342074446380138,#
8.922836303710938,-3.775874137878418,1.978864312171936,0.031764056533575,0.0024433890357613,0.0232121963053941,#
8.920442581176758,-3.900300979614258,1.864008903503418,0.0354291386902332,0.0122169442474842,0.0195471122860908,#
8.94676399230957,-3.962514162063599,1.8903299570083616,0.0525328628718853,0.0207688063383102,0.0146603342145681,#
8.886943817138672,-3.711267709732056,1.8855443000793457,0.1014006435871124,0.0232121963053941,0.0134386392310261,#
8.886943817138672,-3.711267709732056,1.8855443000793457,0.1392731666564941,0.0280989725142717,0.0097735561430454,#
8.920442581176758,-3.677768468856812,1.8735800981521609,0.129499614238739,0.0268772784620523,0.0085518611595034,#
8.906085968017578,-3.613162040710449,1.8424735069274905,0.0940704718232154,0.0280989725142717,0.0048867780715227,#
8.949156761169434,-3.672982692718506,1.797009825706482,0.0452026948332786,0.0280989725142717,0.0048867780715227,#
8.872586250305176,-3.775874137878418,1.758724570274353,0.0195471122860908,0.0268772784620523,0.0048867780715227,#
8.872586250305176,-3.775874137878418,1.758724570274353,-0.0097735561430454,0.0207688063383102,0.0048867780715227,#
8.872586250305176,-3.87876558303833,1.739582061767578,-0.003665083553642,0.0183254163712263,0.003665083553642,#
8.930014610290527,-3.804587841033936,1.804188132286072,0.0366508327424526,0.0097735561430454,-0.0012216945178806,#
8.965906143188477,-3.7902309894561768,1.7539390325546265,0.0806318372488021,0.0024433890357613,-0.0061084721237421,#
8.85105037689209,-3.747160196304321,1.8735800981521609,0.100178949534893,-0.003665083553642,-0.0109952501952648,#
8.85105037689209,-3.747160196304321,1.8735800981521609,0.0769667476415634,-0.0109952501952648,-0.0183254163712263,#
8.898907661437988,-3.747160196304321,1.8592231273651123,0.0549762547016143,-0.0183254163712263,-0.0232121963053941,#
8.889336585998535,-3.7902309894561768,1.835294842720032,0.0561979450285434,-0.0195471122860908,-0.0232121963053941,#
8.858229637145996,-3.924229145050049,1.7922240495681765,0.0757450610399246,-0.0232121963053941,-0.0232121963053941,#
8.944371223449707,-3.780659914016724,1.887937068939209,0.1014006435871124,-0.0268772784620523,-0.0232121963053941,#
8.915657043457031,-3.7232320308685294,1.8927226066589355,0.152711808681488,-0.0280989725142717,-0.0232121963053941,#
8.915657043457031,-3.7232320308685294,1.8927226066589355,0.1588202863931656,-0.0305423624813556,-0.0256555844098329,#
8.949156761169434,-3.749552965164185,1.9238293170928955,0.1466033309698104,-0.0293206684291362,-0.0268772784620523,#
8.913264274597168,-3.7710886001586914,1.919043779373169,0.1197260618209838,-0.0268772784620523,-0.0268772784620523,#
8.898907661437988,-3.682554006576538,1.9716858863830569,0.0965138673782348,-0.0256555844098329,-0.0244338884949684,#
8.930014610290527,-3.684947013854981,2.0195422172546387,0.0745233595371246,-0.0219905003905296,-0.0244338884949684,#
8.930014610290527,-3.684947013854981,2.0195422172546387,0.0537545569241046,-0.0195471122860908,-0.0207688063383102,#
8.803194999694824,-3.76151704788208,1.9621145725250244,0.0598630309104919,-0.0146603342145681,-0.0146603342145681,#
8.872586250305176,-3.742374420166016,1.9262222051620483,0.0757450610399246,-0.0109952501952648,-0.0109952501952648,#
8.86780071258545,-3.706482172012329,1.9525433778762815,0.0623064190149307,-0.0061084721237421,-0.007330167107284,#
8.858229637145996,-3.646661758422852,1.9932212829589844,0.0586413368582725,-0.0048867780715227,-0.007330167107284,#
8.84626579284668,-3.658626079559326,2.0099709033966064,0.0452026948332786,-0.0048867780715227,-0.007330167107284,#
8.84626579284668,-3.658626079559326,2.0099709033966064,0.040315918624401,-0.0024433890357613,-0.003665083553642,#
8.915657043457031,-3.711267709732056,1.954936146736145,0.0488677769899368,-0.0024433890357613,-0.0024433890357613,#
8.906085968017578,-3.739981651306152,1.8999011516571045,0.0720799788832664,-0.003665083553642,-0.003665083553642,#
9.001798629760742,-3.716053485870361,1.9716858863830569,0.0916270837187767,-0.003665083553642,-0.0085518611595034,#
8.97787094116211,-3.5605196952819824,1.938186287879944,0.0952921733260154,-0.0012216945178806,-0.0097735561430454,#
8.97787094116211,-3.5605196952819824,1.938186287879944,0.0537545569241046,0.0024433890357613,-0.0171037223190069,#
8.920442581176758,-3.5748770236968994,2.026720762252808,-0.007330167107284,0.0024433890357613,-0.0219905003905296,#
8.870193481445312,-3.708875179290772,1.919043779373169,-0.031764056533575,0.003665083553642,-0.0207688063383102,#
8.939584732055664,-3.730410575866699,1.9740787744522093,-0.0354291386902332,0.0024433890357613,-0.0183254163712263,#
8.941977500915527,-3.6945178508758554,1.9118653535842896,-0.0219905003905296,0.0024433890357613,-0.0171037223190069,#
8.9850492477417,-3.620340585708618,1.9812570810317995,0.0134386392310261,-0.0012216945178806,-0.0207688063383102,#
8.9850492477417,-3.620340585708618,1.9812570810317995,0.0256555844098329,-0.0048867780715227,-0.0232121963053941,#
8.934800148010254,-3.622733592987061,1.9453648328781128,0.0171037223190069,-0.0061084721237421,-0.0268772784620523,#
8.920442581176758,-3.706482172012329,1.9238293170928955,-0.007330167107284,-0.0109952501952648,-0.0305423624813556,#
8.855835914611816,-3.73758864402771,1.94297194480896,-0.0024433890357613,-0.0109952501952648,-0.031764056533575,#
8.980262756347656,-3.7639100551605225,1.950150489807129,0.0122169442474842,-0.0146603342145681,-0.031764056533575,#
8.980262756347656,-3.7639100551605225,1.950150489807129,0.0452026948332786,-0.0183254163712263,-0.0305423624813556,#
8.999405860900879,-3.7256247997283936,2.038684844970703,0.0549762547016143,-0.0219905003905296,-0.0293206684291362,#
8.956335067749023,-3.634697675704956,2.033899307250977,0.0647498071193695,-0.0232121963053941,-0.0280989725142717,#
8.975478172302246,-3.672982692718506,2.0027925968170166,0.0561979450285434,-0.0232121963053941,-0.0244338884949684,#
8.98265552520752,-3.6921253204345694,2.0243279933929443,0.0464243926107883,-0.0244338884949684,-0.0232121963053941,#
8.886943817138672,-3.682554006576538,1.959721684455872,0.0329857505857944,-0.0207688063383102,-0.0195471122860908,#
8.886943817138672,-3.682554006576538,1.959721684455872,0.0329857505857944,-0.0146603342145681,-0.0134386392310261,#
8.908478736877441,-3.6634113788604736,1.9932212829589844,0.0342074446380138,-0.0134386392310261,-0.0109952501952648,#
8.95394229888916,-3.696911096572876,2.0171494483947754,0.0305423624813556,-0.0085518611595034,-0.0097735561430454,#
8.95394229888916,-3.6323046684265137,1.998006820678711,0.0280989725142717,-0.0048867780715227,-0.0097735561430454,#
8.910871505737305,-3.651447057723999,1.9860427379608157,0.0219905003905296,-0.0048867780715227,-0.0097735561430454,#
8.910871505737305,-3.651447057723999,1.9860427379608157,0.0158820282667875,-0.0048867780715227,-0.0085518611595034,#
8.925228118896484,-3.653840303421021,2.048256158828736,0.0183254163712263,-0.0048867780715227,-0.0085518611595034,#
8.970691680908203,-3.675375461578369,1.9932212829589844,0.0244338884949684,-0.0061084721237421,-0.007330167107284,#
8.853443145751953,-3.579662799835205,1.964507341384888,0.0244338884949684,-0.0061084721237421,-0.0048867780715227,#
8.968299865722656,-3.622733592987061,1.9812570810317995,0.0232121963053941,-0.003665083553642,-0.003665083553642,#
8.93240737915039,-3.620340585708618,1.9453648328781128,0.0122169442474842,-0.003665083553642,-0.003665083553642,#
8.93240737915039,-3.620340585708618,1.9453648328781128,0.003665083553642,-0.0012216945178806,-0.0048867780715227,#
8.944371223449707,-3.641876220703125,1.9812570810317995,0.0061084721237421,-0.0012216945178806,-0.003665083553642,#
9.016156196594238,-3.572484016418457,1.9453648328781128,0.0146603342145681,-0.0012216945178806,-0.003665083553642,#
9.018548011779783,-3.5676987171173096,1.8616160154342647,0.0207688063383102,-0.003665083553642,-0.003665083553642,#
8.894121170043945,-3.562912940979004,2.0171494483947754,0.0268772784620523,-0.0048867780715227,-0.0048867780715227,#
8.894121170043945,-3.562912940979004,2.0171494483947754,0.0158820282667875,-0.0085518611595034,-0.0048867780715227,#
8.927621841430664,-3.622733592987061,1.9860427379608157,0.007330167107284,-0.0109952501952648,-0.0048867780715227,#
8.939584732055664,-3.5509488582611084,1.964507341384888,0.0122169442474842,-0.0146603342145681,-0.0048867780715227,#
8.927621841430664,-3.5844480991363525,1.9262222051620483,0.0280989725142717,-0.0109952501952648,0.0048867780715227,#
8.973085403442383,-3.5126638412475586,1.9070796966552732,0.0256555844098329,-0.0097735561430454,0.0048867780715227,#
8.987441062927246,-3.603590488433838,2.007578134536743,0.0097735561430454,-0.007330167107284,0.0048867780715227,#
8.987441062927246,-3.603590488433838,2.007578134536743,0.0024433890357613,-0.003665083553642,-0.007330167107284,#
8.944371223449707,-3.5676987171173096,1.9573287963867188,-0.0012216945178806,-0.0024433890357613,-0.0122169442474842,#
8.913264274597168,-3.5748770236968994,1.921436548233032,0.0024433890357613,-0.0012216945178806,-0.0158820282667875,#
8.93240737915039,-3.615554809570313,1.9046868085861208,0.0146603342145681,-0.0012216945178806,-0.0158820282667875,#
8.963513374328613,-3.608376264572144,1.9716858863830569,0.0048867780715227,-0.0012216945178806,-0.0146603342145681,#
8.963513374328613,-3.608376264572144,1.9716858863830569,-0.0158820282667875,-0.003665083553642,-0.0097735561430454,#
8.93240737915039,-3.665804386138916,1.9740787744522093,-0.0195471122860908,-0.003665083553642,-0.007330167107284,#
8.908478736877441,-3.6681969165802,1.947757601737976,-0.0195471122860908,-0.0048867780715227,-0.0048867780715227,#
8.958727836608887,-3.610769510269165,1.9262222051620483,0.0048867780715227,-0.007330167107284,-0.0048867780715227,#
8.906085968017578,-3.601198196411133,1.9453648328781128,0.0061084721237421,-0.0085518611595034,-0.0012216945178806,#
8.896513938903809,-3.617947816848755,1.954936146736145,-0.0024433890357613,-0.0097735561430454,-0.0012216945178806,#
8.896513938903809,-3.617947816848755,1.954936146736145,0.0048867780715227,-0.0109952501952648,-0.0012216945178806,#
8.951549530029297,-3.5916268825531006,1.9740787744522093,0.0134386392310261,-0.0109952501952648,-0.0024433890357613,#
8.95394229888916,-3.565305471420288,1.9812570810317995,0.0122169442474842,-0.0109952501952648,-0.007330167107284,#
8.934800148010254,-3.613162040710449,1.9334007501602173,0.0061084721237421,-0.007330167107284,-0.0097735561430454,#
8.951549530029297,-3.610769510269165,1.9525433778762815,0.0048867780715227,-0.0061084721237421,-0.0085518611595034,#
8.951549530029297,-3.610769510269165,1.9525433778762815,-0.0012216945178806,-0.0048867780715227,-0.0048867780715227,#
8.965906143188477,-3.598805427551269,1.954936146736145,-0.0048867780715227,-0.003665083553642,-0.0024433890357613,#
8.975478172302246,-3.603590488433838,1.954936146736145,0.0024433890357613,-0.003665083553642,0.003665083553642,#
8.944371223449707,-3.603590488433838,2.0003998279571533,-0.0012216945178806,-0.0024433890357613,0.007330167107284,#
8.927621841430664,-3.6251261234283447,1.969292998313904,-0.0048867780715227,-0.0024433890357613,0.0061084721237421,#
8.884550094604492,-3.622733592987061,1.940579175949097,-0.0048867780715227,-0.0024433890357613,0.0048867780715227,#
8.884550094604492,-3.622733592987061,1.940579175949097,-0.007330167107284,0.0012216945178806,0.003665083553642,#
8.922836303710938,-3.620340585708618,1.9238293170928955,-0.0122169442474842,0.0012216945178806,0.003665083553642,#
8.910871505737305,-3.565305471420288,1.94297194480896,-0.0171037223190069,0.0024433890357613,0.003665083553642,#
8.98265552520752,-3.601198196411133,1.935793399810791,-0.0219905003905296,0.0012216945178806,0.0061084721237421,#
8.94676399230957,-3.6562328338623047,1.9286150932312007,-0.0232121963053941,0.0012216945178806,0.007330167107284,#
8.94676399230957,-3.6562328338623047,1.9286150932312007,-0.0122169442474842,0.0012216945178806,0.0085518611595034,#
8.906085968017578,-3.596412420272827,1.9118653535842896,-0.0097735561430454,-0.0012216945178806,0.0085518611595034,#
8.97787094116211,-3.548555850982666,1.868794322013855,-0.0122169442474842,-0.0024433890357613,0.0097735561430454,#
8.884550094604492,-3.5270204544067383,1.9046868085861208,-0.0219905003905296,-0.0024433890357613,0.0085518611595034,#
8.956335067749023,-3.615554809570313,1.8831514120101929,-0.0293206684291362,-0.003665083553642,0.0085518611595034,#
8.949156761169434,-3.562912940979004,1.8903299570083616,-0.0366508327424526,-0.0024433890357613,0.0061084721237421,#
8.949156761169434,-3.562912940979004,1.8903299570083616,-0.0305423624813556,-0.0024433890357613,0.0012216945178806,#
8.965906143188477,-3.5509488582611084,1.9812570810317995,-0.0280989725142717,-0.0024433890357613,0.0012216945178806,#
8.918049812316895,-3.608376264572144,1.856830358505249,-0.0207688063383102,-0.0048867780715227,-0.0024433890357613,#
8.874979019165039,-3.5365920066833496,1.868794322013855,-0.0232121963053941,-0.007330167107284,-0.0012216945178806,#
8.930014610290527,-3.610769510269165,1.9094725847244265,-0.0329857505857944,-0.0109952501952648,-0.0012216945178806,#
8.930014610290527,-3.610769510269165,1.9094725847244265,-0.0354291386902332,-0.0122169442474842,-0.0012216945178806,#
8.973085403442383,-3.601198196411133,1.969292998313904,-0.0342074446380138,-0.0122169442474842,-0.0048867780715227,#
8.958727836608887,-3.5294132232666016,1.9453648328781128,-0.0268772784620523,-0.0122169442474842,-0.0146603342145681,#
8.922836303710938,-3.5461630821228027,1.9669002294540403,-0.0293206684291362,-0.0146603342145681,-0.0232121963053941,#
8.879764556884766,-3.620340585708618,1.8903299570083616,-0.0342074446380138,-0.0134386392310261,-0.0256555844098329,#
8.879764556884766,-3.620340585708618,1.8903299570083616,-0.0476460866630077,-0.0146603342145681,-0.0256555844098329,#
8.906085968017578,-3.5916268825531006,1.9860427379608157,-0.0452026948332786,-0.0134386392310261,-0.0195471122860908,#
8.93240737915039,-3.6323046684265137,1.954936146736145,-0.0452026948332786,-0.0109952501952648,-0.0158820282667875,#
9.011369705200195,-3.6251261234283447,1.919043779373169,-0.0500894747674465,-0.007330167107284,-0.0122169442474842,#
8.9850492477417,-3.680161237716675,1.938186287879944,-0.0525328628718853,-0.0061084721237421,-0.0122169442474842,#
9.013763427734377,-3.689732551574707,1.9716858863830569,-0.0549762547016143,-0.0061084721237421,-0.0146603342145681,#
9.013763427734377,-3.689732551574707,1.9716858863830569,-0.0549762547016143,0.0024433890357613,-0.0134386392310261,#
8.879764556884766,-3.649054527282715,1.964507341384888,-0.0561979450285434,0.0061084721237421,-0.0146603342145681,#
8.941977500915527,-3.682554006576538,1.959721684455872,-0.0586413368582725,0.007330167107284,-0.0097735561430454,#
8.910871505737305,-3.704089403152466,1.921436548233032,-0.0623064190149307,0.0085518611595034,-0.003665083553642,#
8.98265552520752,-3.677768468856812,1.931007981300354,-0.0623064190149307,0.0097735561430454,-0.0012216945178806,#
8.98265552520752,-3.677768468856812,1.931007981300354,-0.0488677769899368,0.0097735561430454,-0.0012216945178806,#
8.989834785461426,-3.675375461578369,1.88075852394104,-0.0390942245721817,0.0097735561430454,-0.0024433890357613,#
9.008977890014648,-3.665804386138916,1.868794322013855,-0.0366508327424526,0.0097735561430454,-0.0024433890357613,#
8.9850492477417,-3.682554006576538,1.8376877307891848,-0.040315918624401,0.0109952501952648,-0.0024433890357613,#
8.927621841430664,-3.677768468856812,1.8975083827972408,-0.0452026948332786,0.0109952501952648,-0.0024433890357613,#
8.970691680908203,-3.682554006576538,1.8759729862213133,-0.0427593067288398,0.0109952501952648,0.0012216945178806,#
8.970691680908203,-3.682554006576538,1.8759729862213133,-0.0366508327424526,0.007330167107284,0.003665083553642,#
8.913264274597168,-3.601198196411133,1.8855443000793457,-0.0305423624813556,0.007330167107284,0.0048867780715227,#
8.973085403442383,-3.649054527282715,1.864008903503418,-0.0244338884949684,0.0048867780715227,0.0061084721237421,#
8.980262756347656,-3.6610186100006095,1.9573287963867188,-0.0256555844098329,0.0061084721237421,0.003665083553642,#
8.980262756347656,-3.665804386138916,1.9070796966552732,-0.0280989725142717,0.0048867780715227,0.003665083553642,#
8.980262756347656,-3.665804386138916,1.9070796966552732,-0.0305423624813556,0.0024433890357613,0.003665083553642,#
8.944371223449707,-3.6394832134246826,1.9142580032348635,-0.0378725305199623,0.0024433890357613,0.003665083553642,#
8.963513374328613,-3.696911096572876,1.8927226066589355,-0.0354291386902332,0.0012216945178806,0.003665083553642,#
8.898907661437988,-3.713660717010498,1.8376877307891848,-0.0219905003905296,-0.0012216945178806,0.0048867780715227,#
8.870193481445312,-3.644268989562988,1.88075852394104,-0.0195471122860908,-0.0012216945178806,0.0048867780715227,#
8.9371919631958,-3.627518892288208,1.8999011516571045,-0.0183254163712263,-0.0012216945178806,0.003665083553642,#
8.9371919631958,-3.627518892288208,1.8999011516571045,-0.0329857505857944,0.0012216945178806,0.0024433890357613,#
8.951549530029297,-3.653840303421021,1.9334007501602173,-0.0439810007810592,0.0048867780715227,0.0012216945178806,#
9.03290557861328,-3.675375461578369,1.9070796966552732,-0.0635281130671501,0.0097735561430454,-0.0024433890357613,#
8.870193481445312,-3.5700912475585938,1.940579175949097,-0.0806318372488021,0.0158820282667875,-0.0061084721237421,#
8.944371223449707,-3.603590488433838,1.813759446144104,-0.0952921733260154,0.0171037223190069,-0.0085518611595034,#
8.944371223449707,-3.603590488433838,1.813759446144104,-0.1417165547609329,0.0171037223190069,-0.0122169442474842,#
8.927621841430664,-3.728017807006836,1.8735800981521609,-0.1918060332536697,0.0207688063383102,-0.0158820282667875,#
9.037691116333008,-3.873979806900024,1.797009825706482,-0.1942494213581085,0.0183254163712263,-0.0171037223190069,#
9.10229778289795,-3.864408254623413,1.6797614097595217,-0.1490467190742492,0.0097735561430454,-0.0134386392310261,#
8.910871505737305,-3.876372575759888,1.6965112686157229,-0.1099525094032287,0.0024433890357613,-0.0122169442474842,#
8.925228118896484,-3.677768468856812,1.6893328428268433,-0.0158820282667875,-0.007330167107284,-0.0012216945178806,#
8.925228118896484,-3.677768468856812,1.6893328428268433,0.040315918624401,-0.0244338884949684,0.0097735561430454,#
8.769694328308105,-3.5581274032592773,1.8209381103515625,0.040315918624401,-0.0305423624813556,0.0134386392310261,#
8.922836303710938,-3.5820553302764893,1.8544375896453855,0.0183254163712263,-0.0439810007810592,0.0171037223190069,#
8.865407943725586,-3.670589685440064,1.765903115272522,-0.0158820282667875,-0.0452026948332786,0.0109952501952648,#
8.975478172302246,-3.627518892288208,1.871187210083008,-0.0256555844098329,-0.0390942245721817,0.0061084721237421,#
8.975478172302246,-3.627518892288208,1.871187210083008,-0.0525328628718853,-0.0293206684291362,-0.007330167107284,#
9.332008361816406,-3.88594388961792,2.0027925968170166,-0.1453816443681717,-0.0158820282667875,-0.0048867780715227,#
9.23390293121338,-3.838087558746338,1.8544375896453855,-0.2418954968452453,-0.0012216945178806,0.0085518611595034,#
9.176474571228027,-4.228117942810059,1.935793399810791,-0.5375455617904663,0.0390942245721817,0.0610847249627113,#
9.477970123291016,-4.9363932609558105,2.2923240661621094,-0.684148907661438,0.0500894747674465,0.0989572554826736,#
9.611968994140623,-5.259423732757568,2.242074966430664,-0.8869501948356628,0.0965138673782348,0.2162399291992187,#
9.611968994140623,-5.259423732757568,2.242074966430664,-1.155722975730896,0.2284568697214126,0.3677300214767456,#
9.286543846130373,-5.43170690536499,2.770888566970825,-1.3573025465011597,0.2834331095218658,0.448361873626709,#
8.894121170043945,-5.848058700561523,3.1202406883239746,-1.7763437032699585,0.3848337531089782,0.5693095922470093,#
8.740981101989746,-7.652246475219727,2.667997360229492,-2.183168172836304,0.5106682777404785,0.684148907661438,#
9.291330337524414,-11.633904457092283,1.1581261157989502,-2.365200519561768,0.5827482342720032,0.7537854909896851,#
9.291330337524414,-11.633904457092283,1.1581261157989502,-2.403073072433472,0.6487197875976562,0.98590749502182,#
9.765109062194824,-14.165509223937988,0.5647061467170715,-2.2955639362335205,0.6181774139404297,1.1948171854019165,#
9.475577354431152,-13.115059852600098,2.7732813358306885,-1.8838529586791992,0.499673068523407,1.7115939855575562,#
8.58305549621582,-12.55274772644043,3.8668015003204346,-1.227802872657776,0.3860554695129394,2.218597173690796,#
8.090132713317871,-14.31865119934082,2.258824586868286,-0.9419264793395996,0.3567348122596741,2.467822790145874,#
8.197811126708984,-18.355342864990234,0.3613162040710449,-1.0787562131881714,0.3274141252040863,2.9980382919311523,#
8.197811126708984,-18.355342864990234,0.3613162040710449,-1.8887397050857544,0.2761029601097107,3.5746781826019287,#
8.587841033935547,-20.611772537231445,-0.4881358444690704,-2.1330785751342773,0.2309002727270126,3.839785575866699,#
8.539983749389648,-18.747764587402344,0.5120640397071838,-1.9657063484191892,0.0488677769899368,4.445745944976807,#
7.341179370880127,-15.18246078491211,1.947757601737976,-1.172826647758484,-0.0855186134576797,4.995509147644043,#
6.905685901641846,-11.504691123962402,2.007578134536743,-0.6450546979904175,-0.1099525094032287,5.197088241577148,#
6.905685901641846,-11.504691123962402,2.007578134536743,0.0525328628718853,-0.1392731666564941,5.457309246063232,#
6.580262184143066,-9.446864128112791,1.6223337650299072,0.235787034034729,-0.1380514800548553,5.463418006896973,#
6.805188179016113,-9.099905014038086,1.160519003868103,0.155155211687088,-0.1649287492036819,5.3045973777771,#
6.604190349578857,-10.315458297729492,1.160519003868103,-0.1893626451492309,-0.2443388998508453,4.972296237945557,#
4.031906127929688,-11.1433744430542,-1.062413215637207,-0.3775035738945007,-0.2687727808952331,4.7951507568359375,#
0.9882357716560364,-11.921042442321776,-1.672582983970642,-0.1575985848903656,-0.2504473626613617,4.378552913665772,#
0.9882357716560364,-11.921042442321776,-1.672582983970642,0.0952921733260154,-0.1685938388109207,4.118331909179688,#
-1.0217353105545044,-12.890134811401367,-1.3998013734817505,0.0158820282667875,-0.152711808681488,4.059690952301025,#
-2.2085752487182617,-14.816357612609863,-1.1102697849273682,-0.4263713657855987,-0.2015795856714248,4.052360534667969,#
-2.761317014694214,-15.596417427062988,-0.7585247755050659,-0.7941014170646667,-0.333522617816925,4.139101028442383,#
-2.0650060176849365,-15.12503147125244,-1.1820544004440308,-0.8258654475212097,-0.4251496791839599,4.168421268463135,#
-2.0650060176849365,-15.12503147125244,-1.1820544004440308,-0.7941014170646667,-0.6022953391075134,4.202629089355469,#
-0.5072783827781677,-14.502897262573242,-1.411765456199646,-0.8759549260139465,-0.6865922808647156,4.202629089355469,#
1.3830513954162598,-13.715660095214844,-1.373480200767517,-1.0066763162612915,-0.8564078211784363,4.146430969238281,#
2.392822742462158,-12.002398490905762,-0.6675975918769836,-0.6499415040016174,-0.9907942414283752,3.9827239513397217,#
2.3497519493103027,-9.360722541809082,0.6125625967979431,-0.2370087206363678,-1.0408836603164673,3.8898754119873047,#
1.8281164169311523,-6.151947498321533,0.9906285405158995,0.758672297000885,-1.0017894506454468,3.679743766784668,#
1.8281164169311523,-6.151947498321533,0.9906285405158995,1.3120999336242676,-0.7928797006607056,3.451286792755127,#
1.442872166633606,-4.319044589996338,0.5288137793540955,1.3035480976104736,-0.6597149968147278,3.292466402053833,#
0.7896314859390259,-1.6295121908187866,0.1363908797502517,1.2852225303649902,-0.4410317242145538,2.8624300956726074,#
-0.1052841916680336,-0.3206382095813751,0.0813559740781784,1.4073920249938965,-0.2907632887363434,2.319998025894165,#
-0.2201396822929382,-0.6604190468788147,0.3373879790306091,1.408613681793213,-0.2577775418758392,2.058555126190185,#
-0.2201396822929382,-0.6604190468788147,0.3373879790306091,1.3035480976104736,-0.2553341388702392,1.5772075653076172,#
-0.3589234054088592,-0.9547362923622132,-0.0622133873403072,1.2705622911453247,-0.256555825471878,1.374406337738037,#
-1.5242280960083008,-1.3830513954162598,-0.3445664942264557,1.1386191844940186,-0.2638860046863556,1.0237799882888794,#
-2.878565788269043,-1.921436548233032,-0.1411765366792678,0.9480348825454712,-0.3286358118057251,0.6988092660903931,#
-3.711267709732056,-2.4981069564819336,0.5264209508895874,0.8686248064041138,-0.3848337531089782,0.5827482342720032,#
-4.835894107818604,-2.868994235992432,0.48574298620224,0.8209787011146545,-0.4740174412727356,0.4520269632339477,#
-4.835894107818604,-2.868994235992432,0.48574298620224,0.7440119385719299,-0.445918470621109,0.3567348122596741,#
-6.472585201263428,-3.5341989994049072,0.1914258003234863,0.63283771276474,-0.4178195297718048,0.310310423374176,#
-7.331608772277832,-4.658825397491455,0.4642075896263122,0.3274141252040863,-0.416597843170166,0.2052446752786636,#
-7.618747234344482,-5.434100151062012,0.8446664214134216,-0.0305423624813556,-0.4434750974178314,0.2186833024024963,#
-7.963313579559326,-6.269195556640625,0.0311066936701536,-0.1624853760004043,-0.439810037612915,0.2455605864524841,#
-7.963313579559326,-6.269195556640625,0.0311066936701536,-0.2638860046863556,-0.3994940817356109,0.3066453039646148,#
-8.733802795410156,-6.664010524749756,-1.031306505203247,-0.256555825471878,-0.3762818872928619,0.3371876776218414,#
-9.370293617248535,-6.867401123046875,-1.2801601886749268,-0.2455605864524841,-0.3958290219306946,0.4104893505573272,#
-9.846465110778809,-6.8482584953308105,-1.447657585144043,-0.2504473626613617,-0.5436540246009827,0.5167768001556396,#
-9.413363456726074,-6.649653911590576,-2.093719720840454,-0.258999228477478,-0.5986303091049194,0.5558710098266602,#
-9.497113227844238,-6.252446174621582,-2.6967110633850098,-0.4593571126461029,-0.7183563709259033,0.6621583700180054,#
-9.497113227844238,-6.252446174621582,-2.6967110633850098,-1.1813786029815674,-0.9419264793395996,0.7598939538002014,#
-8.623733520507812,-6.166304588317871,-3.091526985168457,-1.2644537687301636,-1.211920976638794,0.7941014170646667,#
-7.630711555480957,-5.37906551361084,-4.438685894012451,-0.9578084945678712,-1.5430002212524414,0.7818844318389893,counterclockwise
-5.592026710510254,-4.481756687164307,-4.742574691772461,-0.7476770281791687,-1.7433580160140991,0.7684457898139954,counterclockwise
-3.452842950820923,-3.515056610107422,-3.091526985168457,-0.42270627617836,-2.13552188873291,0.7550071477890015,counterclockwise
-3.452842950820923,-3.515056610107422,-3.091526985168457,-0.3286358118057251,-2.310224294662476,0.7562289237976074,counterclockwise
-1.2227323055267334,-2.2947168350219727,-2.5292134284973145,-0.3029802441596985,-2.571666955947876,0.7427902817726135,counterclockwise
1.062413215637207,0.4211367666721344,-2.3234307765960693,-0.6071821451187134,-2.758586168289185,0.6853706240653992,counterclockwise
3.900300979614258,2.7182462215423584,-2.651247262954712,-0.8612945675849915,-2.8306660652160645,0.5717529654502869,counterclockwise
6.833901405334473,4.409972190856934,-2.8522443771362305,-1.1948171854019165,-2.996816635131836,0.1441599577665329,counterclockwise
9.523433685302734,5.422136306762695,-1.9525433778762815,-1.2326897382736206,-3.195952653884888,-0.3982723951339721,counterclockwise
9.523433685302734,5.422136306762695,-1.9525433778762815,-1.3145432472229004,-3.253372430801392,-0.6914790868759155,counterclockwise
11.586047172546388,6.891329765319824,-1.8305093050003047,-2.028012752532959,-3.3767635822296143,-1.3389772176742554,counterclockwise
14.68714427947998,5.934200286865234,-1.227518081665039,-2.8746471405029297,-3.4867160320281982,-2.195384979248047,counterclockwise
15.677773475646973,6.616154670715332,-2.196611166000366,-3.275362968444824,-3.448843479156494,-2.696279764175415,counterclockwise
15.708879470825195,6.752545356750488,-1.8257235288619995,-4.037700176239014,-3.346221208572388,-3.83612060546875,counterclockwise
15.708879470825195,6.752545356750488,-1.8257235288619995,-4.382217884063721,-3.225273370742798,-4.453076362609863,counterclockwise
17.352750778198242,6.041877269744873,-1.0289137363433838,-4.698637008666992,-2.8416614532470703,-5.831148147583008,counterclockwise
20.508882522583008,3.041277408599853,2.7661027908325195,-4.4738450050354,-2.2027151584625244,-7.396138191223144,counterclockwise
25.856842041015625,-0.4905286431312561,7.099504470825195,-4.671759605407715,-1.682273268699646,-8.114494323730469,counterclockwise
33.51387405395508,-5.14456844329834,4.1659040451049805,-6.136571884155273,-0.3603998720645904,-9.321528434753418,counterclockwise
43.25265884399414,-19.211973190307617,11.85165023803711,-6.481089115142822,1.109298586845398,-10.10585594177246,counterclockwise
43.25265884399414,-19.211973190307617,11.85165023803711,-5.767619609832764,2.1220834255218506,-10.173049926757812,counterclockwise
47.58367156982422,-27.38346099853516,15.105889320373535,-4.692528247833252,4.003492832183838,-9.795546531677246,counterclockwise
46.150367736816406,-34.91128158569336,20.69791603088379,-5.806713581085205,4.949084281921387,-9.03931713104248,counterclockwise
45.66462707519531,-44.260040283203125,13.378270149230955,-6.496971607208252,5.643006801605225,-8.494441986083984,counterclockwise
35.55495071411133,-49.96213912963867,-0.229710966348648,-7.370482921600342,6.979540824890137,-6.521405220031738,counterclockwise
35.55495071411133,-49.96213912963867,-0.229710966348648,-7.321615219116211,7.232431411743164,-4.848905086517334,counterclockwise
26.206193923950195,-49.80181503295898,0.3900300860404968,-7.446227550506592,6.682668685913086,-0.1417165547609329,counterclockwise
27.821348190307617,-46.22454833984375,-7.109076023101807,-7.008861064910889,6.212316513061523,3.413414478302002,counterclockwise
19.8341064453125,-42.59224319458008,-19.678571701049805,-6.814611434936523,6.251410484313965,4.338237285614014,counterclockwise
14.30907917022705,-39.3308219909668,-19.147367477416992,-6.576381206512451,5.71019983291626,6.156118869781494,counterclockwise
19.01097679138184,-33.951759338378906,-21.403797149658203,-4.9454193115234375,3.867884635925293,8.426027297973633,counterclockwise
19.01097679138184,-33.951759338378906,-21.403797149658203,-3.9179742336273193,2.8575432300567627,9.268996238708496,counterclockwise
22.573888778686523,-25.94058990478516,-25.00499725341797,-1.9840317964553835,1.0811996459960938,10.069206237792969,counterclockwise
22.66481590270996,-19.451255798339844,-24.8662109375,-0.3762818872928619,-0.3811686933040619,10.127846717834473,counterclockwise
22.04986000061035,-11.162517547607422,-20.73619842529297,0.0720799788832664,-0.9724688529968262,9.964139938354492,counterclockwise
20.58784484863281,-6.288337707519531,-17.34078598022461,0.5436540246009827,-2.0267910957336426,9.35940170288086,counterclockwise
20.58784484863281,-6.288337707519531,-17.34078598022461,0.6755970120429993,-2.425063371658325,8.951355934143066,counterclockwise
18.180665969848636,-2.258824586868286,-13.761122703552246,0.5241069197654724,-2.990708112716675,8.063183784484863,counterclockwise
15.309279441833496,0.0598205626010894,-10.403992652893066,0.1380514800548553,-3.38165020942688,7.199445724487305,counterclockwise
14.007582664489746,1.284945726394653,-8.748159408569336,0.0476460866630077,-3.4989328384399414,6.775517463684082,counterclockwise
12.14357566833496,2.2612173557281494,-5.737988471984863,-0.1392731666564941,-3.5539093017578125,5.881237506866455,counterclockwise
10.566704750061035,3.1800613403320312,-2.282752752304077,-0.2541124522686004,-3.476942539215088,4.930758953094482,counterclockwise
10.566704750061035,3.1800613403320312,-2.282752752304077,-0.2944283783435821,-3.385315418243408,4.467736721038818,counterclockwise
8.2695951461792,4.371686935424805,-0.1722832471132278,-0.5167768001556396,-3.144641637802124,3.622324228286743,counterclockwise
5.656632423400879,4.287938117980957,2.687139749526977,-0.680483877658844,-3.0334672927856445,3.228938341140747,counterclockwise
4.058227062225342,2.9790639877319336,5.86720085144043,-1.0531005859375,-2.687727928161621,2.542346239089966,counterclockwise
2.380858421325684,1.9956141710281368,6.262016773223877,-1.538113355636597,-2.097649574279785,1.9974703788757324,counterclockwise
2.380858421325684,1.9956141710281368,6.262016773223877,-1.747023105621338,-1.8007776737213137,1.7445796728134155,counterclockwise
1.007378339767456,1.0911270380020142,6.120840072631836,-1.935163974761963,-1.369519591331482,1.3230950832366943,counterclockwise
-0.0909272655844688,-0.3421736359596252,6.680760860443115,-1.593089580535889,-1.1019684076309204,0.9382613897323608,counterclockwise
-1.5720844268798828,-0.6460621356964111,7.47517728805542,-1.4342693090438845,-1.0274450778961182,0.7501204013824463,counterclockwise
-2.266003131866455,-1.4452648162841797,8.202595710754395,-1.3182083368301392,-0.9333745837211608,0.4361449182033539,counterclockwise
-2.266003131866455,-1.4452648162841797,8.202595710754395,-1.4306042194366455,-0.8283088207244873,0.1722589135169983,counterclockwise
-2.89052963256836,-2.287538528442383,8.298308372497559,-1.48802387714386,-0.7794410586357117,0.0354291386902332,counterclockwise
-4.299902439117432,-3.395415067672729,8.250452041625977,-1.4122787714004517,-0.7317950129508972,-0.1624853760004043,counterclockwise
-4.814359188079834,-4.3070807456970215,8.389235496520996,-1.2192511558532717,-0.7085827589035034,-0.2455605864524841,counterclockwise
-4.893322467803955,-5.321637630462647,8.070990562438965,-0.726908266544342,-0.577861487865448,-0.3261924386024475,counterclockwise
-5.252245903015137,-5.709274768829346,7.551748275756836,-0.3310791850090027,-0.3775035738945007,-0.2919849753379822,counterclockwise
-5.252245903015137,-5.709274768829346,7.551748275756836,-0.1979145109653473,-0.2748812437057495,-0.2675510942935943,counterclockwise
-5.860023021697998,-5.800201892852783,6.915257453918457,-0.0549762547016143,-0.1209477484226226,-0.2418954968452453,counterclockwise
-6.534798622131348,-5.9700927734375,6.697510242462158,-0.0244338884949684,-0.0085518611595034,-0.2125748395919799,counterclockwise
-6.905685901641846,-6.003591537475586,6.364907741546631,-0.0232121963053941,0.0549762547016143,-0.2015795856714248,counterclockwise
-7.070791244506836,-5.996413230895996,5.307280540466309,-0.0415376126766204,0.1808107793331146,-0.1710372269153595,counterclockwise
-7.070791244506836,-5.996413230895996,5.307280540466309,-0.1014006435871124,0.2748812437057495,-0.1356080919504165,counterclockwise
-7.226324081420898,-5.886343479156494,4.175475597381592,-0.1075091138482093,0.2993151545524597,-0.1221694499254226,#
-7.410572052001953,-5.950949668884277,3.4121649265289307,-0.0097735561430454,0.3066453039646148,-0.1062874197959899,#
-7.546962738037109,-5.9700927734375,3.1202406883239746,0.0965138673782348,0.2883199155330658,-0.0940704718232154,#
-7.501499176025391,-5.91505765914917,3.034099102020264,0.3579564988613128,0.2150182276964187,-0.0708582773804664,#
-7.5326056480407715,-5.417350769042969,2.849851608276367,0.4801259338855743,0.1685938388109207,-0.0378725305199623,#
-7.5326056480407715,-5.417350769042969,2.849851608276367,0.445918470621109,0.1429382413625717,-0.0207688063383102,#
-7.214360237121582,-5.051248073577881,2.8761727809906006,0.2944283783435821,0.0842969194054603,-0.0012216945178806,#
-6.410372257232666,-5.044069766998291,2.995814085006714,0.2907632887363434,0.0293206684291362,0.0158820282667875,#
-4.728217601776123,-5.132604122161865,3.1585259437561035,0.3689517080783844,0.0048867780715227,0.0427593067288398,#
-3.5198421478271484,-4.831109046936035,2.878565788269043,0.7061393857002258,0.0244338884949684,0.0965138673782348,#
