accX,accY,accZ,gyrX,gyrY,gyrZ,annotation
12.540782928466797,-12.849457740783691,11.423335075378418,0.1905843466520309,1.1581664085388184,-1.4684767723083496,#
14.89292812347412,-12.44267749786377,11.313264846801758,0.4031591713428497,2.400629758834839,-1.6578394174575806,#
15.771093368530272,-12.277572631835938,10.329815864562988,0.6927007436752319,3.902092218399048,-1.7445796728134155,#
16.687543869018555,-14.285151481628418,6.530013084411621,0.758672297000885,4.666872978210449,-1.81177282333374,#
17.216360092163086,-17.76192283630371,0.5264209508895874,0.8112051486968994,6.231863498687744,-1.81177282333374,#
17.216360092163086,-17.76192283630371,0.5264209508895874,0.9272661209106444,7.970334529876709,-1.6175235509872437,#
16.620546340942383,-15.601203918457031,-3.019742012023926,1.1288456916809082,8.928143501281738,-1.582094430923462,#
14.316258430480955,-11.95454216003418,-4.218546390533447,1.5210096836090088,10.643403053283691,-1.469698429107666,#
14.297115325927734,-15.739986419677734,-5.314458847045898,1.0347752571105957,11.593880653381348,-0.7513421177864075,#
17.25225067138672,-20.72902107238769,-11.028520584106444,0.8283088207244873,11.85410213470459,-0.1514901220798492,#
17.25225067138672,-20.72902107238769,-11.028520584106444,1.0836429595947266,12.866886138916016,0.6499415040016174,#
21.095123291015625,-15.859628677368164,-10.279565811157228,1.5283397436141968,13.505831718444824,0.6536065340042114,#
18.254844665527344,-9.757929801940918,-8.307880401611328,1.6492875814437866,14.060482025146484,0.5021164417266846,#
17.481962203979492,-13.935799598693848,-10.191031455993652,1.5772075653076172,13.00249481201172,1.068982720375061,#
14.639288902282717,-14.44307804107666,-13.39741325378418,1.5185662508010864,12.042242050170898,1.4770286083221436,#
12.705887794494627,-9.817750930786133,-15.215959548950195,1.766570210456848,10.076536178588867,1.4758068323135376,#
12.705887794494627,-9.817750930786133,-15.215959548950195,2.296785831451416,8.501771926879883,1.1398409605026243,#
9.422935485839844,-9.15733242034912,-17.582460403442383,1.9486026763916016,7.809071063995361,0.9822423458099364,#
5.127819538116455,-8.432307243347168,-21.281763076782227,0.7098045349121094,6.438329696655273,0.864959716796875,#
2.043470621109009,-7.161717891693115,-23.46162414550781,0.3286358118057251,5.678436279296875,0.8173136115074158,#
-0.9619146585464478,-7.068397998809815,-21.84646987915039,0.0928487852215766,3.842229127883911,0.6132906079292297,#
-0.9619146585464478,-7.068397998809815,-21.84646987915039,0.0280989725142717,1.8423151969909668,0.3139754831790924,#
-2.4287149906158447,-7.908278465270996,-18.252450942993164,0.0488677769899368,0.8710681796073914,0.1844758540391922,#
-2.4670000076293945,-8.71466064453125,-14.017155647277832,0.4581354260444641,-0.8478559851646423,0.003665083553642,#
-1.9884356260299685,-10.054640769958496,-11.387442588806152,0.6450546979904175,-1.83132004737854,0.0109952501952648,#
-2.132004976272583,-9.332008361816406,-9.68375301361084,0.5864133238792419,-2.039008140563965,0.0940704718232154,#
-2.132004976272583,-9.332008361816406,-9.68375301361084,0.4825693070888519,-2.0817673206329346,0.3115321099758148,#
-2.6081764698028564,-9.382257461547852,-7.403393745422363,0.4886777997016907,-1.9730366468429563,0.4911211729049682,#
-3.414557933807373,-9.985249519348145,-4.692325115203857,0.5961868762969971,-1.9864752292633057,0.5448757410049438,#
-3.809373617172241,-9.889535903930664,-5.041677951812744,0.6450546979904175,-2.2405877113342285,0.6413896083831787,#
-3.524627923965454,-9.975677490234377,-4.869394302368164,0.4874561131000519,-2.3847475051879883,0.7171346545219421,#
-2.6560330390930176,-9.834501266479492,-3.359522819519043,-0.0635281130671501,-2.7317090034484863,0.8380824327468872,#
-2.6560330390930176,-9.834501266479492,-3.359522819519043,-0.7207997441291809,-3.114099264144897,0.901610553264618,#
-2.837887763977051,-10.329815864562988,-1.4452648162841797,-1.0408836603164673,-3.312013864517212,0.8551861643791199,#
-2.4502503871917725,-10.573883056640623,-1.1820544004440308,-0.9309312105178832,-3.552687406539917,0.9003888368606567,#
-1.9046868085861208,-11.1433744430542,-2.8977081775665283,-0.8722898364067078,-3.856889486312866,1.0262233018875122,#
-1.0001999139785769,-9.468399047851562,-2.462214469909668,-0.6890356540679932,-3.953403472900391,1.1215155124664309,#
-1.0001999139785769,-9.468399047851562,-2.462214469909668,-0.9126058220863342,-4.074350833892822,1.2314679622650146,#
-0.6460621356964111,-7.944170951843262,3.201596736907959,-0.9370396137237548,-4.165977954864502,1.189930438995361,#
-1.4715858697891235,-8.193024635314941,1.160519003868103,-0.9749122262001038,-4.253940105438232,1.155722975730896,#
-1.887937068939209,-8.535198211669922,-1.5074783563613892,-1.1508362293243408,-4.297921180725098,0.893058717250824,#
-0.5048855543136597,-8.111669540405273,-1.0336993932724,-1.0518789291381836,-4.187968730926514,0.7977665066719055,#
-0.4666004180908203,-8.118846893310547,3.479164123535156,-1.3035480976104736,-4.2771525382995605,0.707361102104187,#
-0.4666004180908203,-8.118846893310547,3.479164123535156,-1.4477078914642334,-4.043808460235596,0.3017585575580597,#
-2.093719720840454,-9.04726219177246,3.31166672706604,-1.0653176307678225,-3.8923187255859375,-0.0097735561430454,#
-2.469392776489258,-7.494320392608643,0.9643075466156006,-0.1246128380298614,-3.849559545516968,-0.0586413368582725,#
-1.9453648328781128,-5.726025104522705,0.4522434771060943,0.0904053896665573,-3.866662979125977,0.100178949534893,#
-1.2299107313156128,-5.986842632293701,4.984249591827393,-0.0171037223190069,-3.800691604614258,0.2687727808952331,#
-1.2299107313156128,-5.986842632293701,4.984249591827393,-0.5473191142082214,-3.746937036514282,0.1197260618209838,#
-1.4141581058502195,-8.34855842590332,4.989035129547119,-0.4691306948661804,-3.6577532291412354,-0.0720799788832664,#
-1.9094725847244265,-9.253045082092283,2.196611166000366,-0.2699944972991943,-3.6345410346984863,-0.3481829464435577,#
-2.2755744457244877,-7.412964344024658,0.5575276613235474,-0.1624853760004043,-3.4097492694854736,-0.4349232316017151,#
-1.9860427379608157,-6.044269561767578,1.6869399547576904,-0.4642439186573028,-3.3022403717041016,-0.4422534108161926,#
-1.9860427379608157,-6.044269561767578,1.6869399547576904,-0.8637380003929138,-3.2154998779296875,-0.5851916074752808,#
-1.4931212663650513,-9.475577354431152,3.38823676109314,-0.7769976854324341,-3.2264950275421143,-0.7769976854324341,#
-1.191625714302063,-12.52164077758789,4.175475597381592,-0.6743753552436829,-3.205726385116577,-0.8209787011146545,#
-2.124826431274414,-9.688538551330566,2.0027925968170166,-0.8160918951034546,-3.2423770427703857,-0.6462763547897339,#
-2.651247262954712,-9.456435203552246,3.565305471420288,-0.7745543122291565,-3.1727404594421387,-0.5998519659042358,#
-1.4668002128601074,-9.913464546203612,9.72921657562256,0.1905843466520309,-3.004146814346313,-0.1392731666564941,#
-1.4668002128601074,-9.913464546203612,9.72921657562256,-0.6169556975364685,-3.197174549102783,0.7623373866081238,#
0.0023928226437419,-13.445270538330078,11.19362449645996,-1.011563062667847,-3.2875797748565674,0.9944592714309692,#
-0.4522434771060943,-12.87817096710205,9.119047164916992,-1.610193371772766,-3.167853593826294,1.1251806020736694,#
-2.0961124897003174,-12.52881908416748,6.336194515228272,-1.494132399559021,-2.4800398349761963,1.3646327257156372,#
-2.526820659637451,-12.06461238861084,5.582455158233643,-1.1117420196533203,-2.0793240070343018,1.408613681793213,#
-2.526820659637451,-12.06461238861084,5.582455158233643,-0.577861487865448,-1.580872654914856,1.4159438610076904,#
-2.0027925968170166,-11.8468656539917,6.589833736419678,-0.5045598149299622,-1.47825026512146,1.3389772176742554,#
-1.3112668991088867,-11.45205020904541,7.805387496948242,-0.5216635465621948,-1.3389772176742554,1.0653176307678225,#
-0.7776673436164856,-11.753543853759766,6.874579429626465,-0.6255075931549072,-1.2497934103012085,1.225359559059143,#
-1.294516921043396,-9.722038269042969,5.580062389373779,-0.3286358118057251,-1.2106993198394775,1.2534584999084473,#
-1.294516921043396,-9.722038269042969,5.580062389373779,0.2370087206363678,-0.9907942414283752,1.0531005859375,#
-2.0243279933929443,-8.403593063354492,4.393222332000732,0.6438329815864563,-0.8722898364067078,0.9089407324790956,#
-1.7754744291305542,-7.41535758972168,4.034298896789551,0.6597149968147278,-0.8808417320251465,0.8942803740501404,#
-1.4739787578582764,-7.027719974517822,3.5916268825531006,0.2785463333129883,-0.8808417320251465,0.8075400590896606,#
-1.6007983684539795,-7.1641106605529785,3.1896328926086426,0.0708582773804664,-0.836860716342926,0.7036960124969482,#
-1.9094725847244265,-7.384250640869141,2.57228422164917,-0.1514901220798492,-0.6499415040016174,0.4825693070888519,#
-1.9094725847244265,-7.384250640869141,2.57228422164917,-0.1795890927314758,-0.5705313086509705,0.2651077210903168,#
-2.021935224533081,-8.039883613586426,2.562713146209717,-0.1209477484226226,-0.5717529654502869,0.1795890927314758,#
-2.0243279933929443,-8.798408508300781,2.9934213161468506,0.0745233595371246,-0.620620846748352,0.069636583328247,#
-1.921436548233032,-8.530412673950195,2.825923442840576,0.2480039745569229,-0.7317950129508972,-0.0232121963053941,#
-1.9118653535842896,-8.439485549926758,2.756531953811645,0.3811686933040619,-0.8160918951034546,-0.0733016654849052,#
-1.9118653535842896,-8.439485549926758,2.756531953811645,0.4679089784622192,-0.8576295375823975,-0.0647498071193695,#
-1.9262222051620483,-8.71226692199707,3.1728827953338623,0.4337015450000763,-0.8124268054962158,-0.0415376126766204,#
-2.09850549697876,-8.317451477050781,3.2135608196258545,0.4263713657855987,-0.6829272508621216,-0.0610847249627113,#
-2.0003998279571533,-8.0350980758667,3.620340585708618,0.2370087206363678,-0.549762487411499,-0.0390942245721817,#
-2.09850549697876,-8.212166786193848,4.122833251953125,0.0610847249627113,-0.4923428893089294,-0.0256555844098329,#
-2.108076810836792,-8.678767204284668,4.015156269073486,-0.3384093642234802,-0.3823903799057007,0.0354291386902332,#
-2.108076810836792,-8.678767204284668,4.015156269073486,-0.5558710098266602,-0.3286358118057251,0.0952921733260154,#
-2.287538528442383,-8.71226692199707,3.739981651306152,-0.6035171151161194,-0.2895416021347046,0.0965138673782348,#
-2.531606435775757,-8.86780071258545,3.814159393310547,-0.5974085927009583,-0.1637070626020431,0.0342074446380138,#
-2.622533798217773,-9.475577354431152,4.022334575653076,-0.5851916074752808,-0.1099525094032287,-0.0574196390807628,#
-2.682354211807251,-9.456435203552246,4.34536600112915,-0.4972296357154846,-0.0989572554826736,-0.0965138673782348,#
-2.682354211807251,-9.456435203552246,4.34536600112915,-0.2015795856714248,-0.1062874197959899,-0.1856975704431533,#
-2.6703903675079346,-9.083154678344728,4.130012035369873,-0.0745233595371246,-0.1319430023431778,-0.1930277347564697,#
-2.720639228820801,-8.901299476623535,3.926621913909912,-0.0415376126766204,-0.1856975704431533,-0.1478250324726104,#
-2.763710021972656,-9.049654960632324,3.919443368911743,-0.3347443044185638,-0.1881409436464309,-0.0965138673782348,#
-2.912065029144287,-9.564111709594728,3.99362063407898,-0.4532486498355865,-0.199136197566986,-0.0916270837187767,#
-2.912065029144287,-9.564111709594728,3.99362063407898,-0.494786262512207,-0.2528907656669616,-0.0354291386902332,#
-2.871387243270874,-9.688538551330566,4.25922441482544,-0.310310423374176,-0.3261924386024475,0.0537545569241046,#
-3.187239646911621,-9.355937004089355,3.854837417602539,-0.2174616158008575,-0.3542913794517517,0.0867403075098991,#
-3.3403804302215576,-9.207581520080566,3.5916268825531006,-0.2040229737758636,-0.4214845895767212,0.1209477484226226,#
-3.5772697925567627,-9.726823806762695,3.5581274032592773,-0.310310423374176,-0.4727957546710968,0.128277912735939,#
-3.873979806900024,-9.511469841003418,3.754338502883911,-0.4214845895767212,-0.5204418301582336,0.1722589135169983,#
-3.873979806900024,-9.511469841003418,3.754338502883911,-0.282211422920227,-0.5766398310661316,0.2260134816169738,#
-4.357330322265625,-8.57348346710205,3.742374420166016,-0.1930277347564697,-0.6022953391075134,0.2492256760597229,#
-4.833501815795898,-8.283952713012695,3.5700912475585938,-0.287098228931427,-0.5913001298904419,0.282211422920227,#
-5.14456844329834,-9.066404342651367,3.7734813690185542,-0.5558710098266602,-0.6719319820404053,0.3738385140895843,#
-4.694717884063721,-9.743573188781738,3.608376264572144,-0.6572716236114502,-0.73912513256073,0.388498842716217,#
-4.694717884063721,-9.743573188781738,3.608376264572144,-0.4239279925823211,-1.1141853332519531,0.3897205293178558,#
-4.412364959716797,-9.343972206115724,3.35713005065918,-0.2651077210903168,-1.2510151863098145,0.4581354260444641,#
-5.39342212677002,-9.509077072143556,2.483749866485596,-0.1820324808359146,-1.1080769300460815,0.4789042472839355,#
-5.613561630249023,-9.875179290771484,2.344966173171997,-0.2333436459302902,-0.7794410586357117,0.3347443044185638,#
-4.1730828285217285,-10.047462463378906,2.5076780319213867,-0.2626643180847168,-0.9089407324790956,0.3151971697807312,#
-2.720639228820801,-9.470791816711426,3.6921253204345694,0.0427593067288398,-1.5149011611938477,0.3371876776218414,#
-2.720639228820801,-9.470791816711426,3.6921253204345694,0.5583143830299377,-1.8655275106430051,0.4764608442783355,#
-1.6295121908187866,-7.223931312561035,4.493720531463623,0.6120689511299133,-1.7445796728134155,0.5717529654502869,#
-0.0095712905749678,-6.422336101531982,5.407779216766357,0.0574196390807628,-1.4892456531524658,0.5632011890411377,#
2.0171494483947754,-8.482556343078613,5.493920803070068,-0.5583143830299377,-1.4318259954452517,0.4544703662395477,#
3.830909013748169,-10.26520824432373,8.01356315612793,-0.785549521446228,-1.2791141271591189,0.4300364553928375,#
3.830909013748169,-10.26520824432373,8.01356315612793,-0.8441908955574036,-0.6365028619766235,-0.0134386392310261,#
4.792823314666748,-11.06680393218994,11.176874160766602,-0.6096255779266357,-0.5094466209411621,-0.2260134816169738,right
7.556533336639404,-12.928421020507812,13.404592514038086,-0.5143333673477173,-0.5827482342720032,-0.3384093642234802,right
12.80160140991211,-13.581660270690918,12.272788047790527,-0.1417165547609329,-0.2247917801141739,-0.7879929542541504,right
14.749359130859377,-8.757731437683105,9.970890998840332,0.4324798583984375,0.0867403075098991,-0.9602518677711488,right
14.749359130859377,-8.757731437683105,9.970890998840332,1.4550381898880005,1.4623682498931885,-1.132510781288147,right
17.96770477294922,-6.948756694793701,13.536197662353516,1.068982720375061,3.2826929092407227,-1.313321590423584,right
20.786449432373047,-9.600004196166992,15.079567909240724,1.0176715850830078,4.103672027587891,-1.4122787714004517,right
21.162124633789062,-14.120046615600586,11.473583221435549,1.440377712249756,5.805492401123047,-1.571099042892456,right
21.722043991088867,-11.205588340759276,7.709674835205078,2.0267910957336426,6.6032586097717285,-1.8142162561416624,right
20.642881393432617,-10.695917129516602,4.498506546020508,2.8599867820739746,8.577516555786133,-2.597322702407837,right
20.642881393432617,-10.695917129516602,4.498506546020508,1.9498244524002075,11.11619758605957,-2.71094012260437,right
19.20718765258789,-13.165310859680176,3.6945178508758554,0.6071821451187134,12.203505516052246,-2.42995023727417,right
20.030319213867188,-19.36750602722168,-1.5529417991638184,-0.910162389278412,12.871773719787598,-1.640735745429993,right
20.396419525146484,-21.157337188720703,-8.267202377319336,1.1337324380874634,12.35621738433838,-1.1019684076309204,right
20.83191299438477,-15.160923957824709,-7.381857395172119,2.6975014209747314,12.142420768737791,-1.2497934103012085,right
20.83191299438477,-15.160923957824709,-7.381857395172119,3.869106531143189,11.937177658081056,-2.032899618148804,right
19.52543258666992,-12.04786205291748,-10.913663864135742,3.0383541584014893,12.000704765319824,-2.263799905776977,right
16.95793342590332,-13.117453575134276,-14.249258041381836,0.7794410586357117,11.103981018066406,-2.344431638717652,right
15.773487091064451,-14.878570556640623,-21.36790657043457,0.554649293422699,9.639169692993164,-1.385401487350464,right
10.193424224853516,-11.892329216003418,-23.11945152282715,0.2785463333129883,9.067416191101074,-1.1349540948867798,right
5.489135265350342,-10.942378044128418,-24.600608825683597,-0.5607577562332153,7.88725996017456,-0.7415685653686523,right
5.489135265350342,-10.942378044128418,-24.600608825683597,-0.6084038615226746,5.820152759552002,-0.2675510942935943,right
0.6580261588096619,-10.05224895477295,-25.064817428588867,-0.2516690790653229,4.621670246124268,-0.0855186134576797,right
-1.636690616607666,-9.870393753051758,-21.348764419555664,0.6572716236114502,2.340766429901123,0.0268772784620523,right
-0.7154539823532104,-11.34197998046875,-16.39083480834961,1.3011046648025513,0.3677300214767456,0.1771456897258758,right
-1.2681961059570312,-10.767702102661133,-15.034104347229004,1.3670761585235596,-0.42270627617836,0.2150182276964187,right
-1.2681961059570312,-10.767702102661133,-15.034104347229004,1.2473500967025757,-1.4196090698242188,0.3115321099758148,right
-1.3854442834854126,-9.1716890335083,-9.851251602172852,1.147171139717102,-1.7580183744430542,0.4263713657855987,right
-1.519442439079285,-8.824729919433594,-10.449455261230469,1.257123589515686,-2.007244110107422,0.7831061482429504,#
-1.5170495510101318,-8.748159408569336,-9.087940216064451,1.2742273807525637,-2.250361204147339,1.031110167503357,#
-1.1820544004440308,-10.557132720947266,-8.295915603637695,1.2510151863098145,-2.45927095413208,1.0653176307678225,#
-1.1820544004440308,-10.557132720947266,-8.295915603637695,1.2461284399032593,-2.8819773197174072,1.0188932418823242,#
0.2177468687295913,-12.835101127624512,-4.878964900970459,1.09219491481781,-3.4500653743743896,0.9907942414283752,#
-0.8494520783424377,-12.184252738952637,-2.950350284576416,0.9492565989494324,-3.6003334522247314,0.9920158982276917,#
-1.4883356094360352,-11.693723678588867,-3.476771354675293,0.8991671204566956,-3.795804738998413,1.0518789291381836,#
-0.3302095234394073,-12.320643424987791,-2.995814085006714,0.786771297454834,-3.9045355319976807,1.2559019327163696,#
-0.0669990330934524,-12.394822120666504,-1.241874933242798,-0.1062874197959899,-4.194077014923096,1.8056644201278689,#
-0.0669990330934524,-12.394822120666504,-1.241874933242798,-0.8490777015686035,-4.468958377838135,1.9925836324691768,#
-0.8542376756668091,-11.475976943969728,1.043270707130432,-0.8783983588218689,-4.588684558868408,1.9534894227981567,#
-0.9571290016174316,-8.863015174865723,0.5886343717575073,-0.7513421177864075,-4.869674205780029,1.9156169891357424,#
0.1914258003234863,-7.300501823425293,-0.6652047038078308,-1.0811996459960938,-5.230074405670166,2.1184182167053223,#
1.3543376922607422,-8.257630348205566,2.0123636722564697,-1.5185662508010864,-5.459752559661865,2.3395450115203857,#
1.3543376922607422,-8.257630348205566,2.0123636722564697,-3.0713398456573486,-5.652780532836914,2.520355701446533,#
0.8853443264961243,-11.162517547607422,5.886343479156494,-3.4231879711151123,-5.535498142242432,2.1281917095184326,#
0.8853443264961243,-8.126025199890137,5.192424774169922,-2.76347279548645,-5.496403217315674,1.3292036056518557,#
2.053041696548462,-6.963113307952881,9.631111145019531,-1.368297815322876,-5.558710098266602,1.1312891244888306,#
2.711068153381348,-9.688538551330566,13.804192543029783,-1.321873426437378,-5.2899370193481445,1.3243167400360107,#
0.2632104754447937,-10.183852195739746,12.239288330078123,-1.9534894227981567,-4.438416004180908,1.808107852935791,#
0.2632104754447937,-10.183852195739746,12.239288330078123,-1.6089717149734497,-3.315678834915161,1.220472812652588,#
-0.8590233325958252,-7.582855224609375,8.62612533569336,-1.1019684076309204,-2.762251377105713,0.891836941242218,#
0.0813559740781784,-6.463014125823975,10.772488594055176,-1.320651650428772,-2.1110880374908447,0.9736905097961426,#
-0.8949156999588013,-10.7437744140625,9.633503913879396,-2.3273282051086426,-1.640735745429993,0.8063183426856995,#
-2.122433662414551,-12.057433128356934,7.240681171417236,-2.263799905776977,-1.6028631925582886,0.6975875496864319,#
-2.122433662414551,-12.057433128356934,7.240681171417236,-1.534448266029358,-1.2106993198394775,0.7330166697502136,#
-2.045863389968872,-10.348958015441896,5.309673309326172,-0.891836941242218,-0.9761338829994202,0.6829272508621216,#
-2.057827472686768,-7.444070816040039,4.005585193634033,0.0940704718232154,-0.7098045349121094,0.7452336549758911,#
-3.187239646911621,-8.630911827087402,5.14456844329834,0.0012216945178806,-0.554649293422699,0.8197570443153381,#
-3.675375461578369,-10.949556350708008,6.132804393768311,-0.0891837030649185,-0.549762487411499,0.8588511943817139,#
-3.675375461578369,-10.949556350708008,6.132804393768311,-0.0525328628718853,-0.6487197875976562,0.8050966858863831,#
-3.969692707061768,-9.008977890014648,5.783452033996582,0.3176405727863312,-0.8014315962791443,0.5680879354476929,#
-4.381258487701416,-7.350750923156738,5.967699527740479,0.5424323678016663,-0.8344173431396484,0.4324798583984375,#
-4.168296813964844,-7.417750358581543,5.5345988273620605,0.5803048610687256,-0.7330166697502136,0.3213056325912475,#
-4.2376885414123535,-7.599604606628418,5.118247985839844,0.5375455617904663,-0.680483877658844,0.3689517080783844,#
-4.689932346343994,-7.379465103149414,4.3142595291137695,0.3530696928501129,-0.5363238453865051,0.3286358118057251,#
-4.689932346343994,-7.379465103149414,4.3142595291137695,0.2651077210903168,-0.4312581717967987,0.1747023165225982,#
-4.613362312316895,-7.345965385437012,3.460021495819092,0.2040229737758636,-0.4532486498355865,0.1404948681592941,#
-4.208974838256836,-7.800601959228516,3.81655216217041,-0.0940704718232154,-0.6071821451187134,0.0342074446380138,#
-3.957728624343872,-8.71466064453125,3.4719858169555664,-0.2418954968452453,-0.6890356540679932,-0.0061084721237421,#
-4.122833251953125,-8.530412673950195,3.565305471420288,-0.1844758540391922,-0.6914790868759155,0.0928487852215766,#
-4.122833251953125,-8.530412673950195,3.565305471420288,-0.0610847249627113,-0.5289937257766724,0.2174616158008575,#
-4.493720531463623,-7.666603565216064,3.4959137439727783,0.0684148892760276,-0.365286648273468,0.1673721522092819,#
-4.543970108032227,-6.967899799346924,3.517449140548706,0.0024433890357613,-0.3432961404323578,0.1575985848903656,#
-4.443471908569336,-7.312465667724609,3.672982692718506,-0.1905843466520309,-0.3042019307613373,0.1820324808359146,#
-4.493720531463623,-7.697710037231445,3.531806230545044,-0.2699944972991943,-0.2980934381484985,0.200357899069786,#
-4.567898273468018,-7.862814903259277,3.4719858169555664,-0.3249707520008087,-0.2858764827251434,0.2174616158008575,#
-4.567898273468018,-7.862814903259277,3.4719858169555664,-0.3042019307613373,-0.2284568697214126,0.287098228931427,#
-4.737788677215576,-7.917850017547607,3.5748770236968994,-0.3200839459896087,-0.1624853760004043,0.3017585575580597,#
-4.421936511993408,-8.070990562438965,3.847658634185791,-0.4275930821895599,-0.0928487852215766,0.2321219593286514,#
-4.486542701721191,-8.116454124450684,4.034298896789551,-0.5839699506759644,-0.0916270837187767,0.1856975704431533,#
-4.785645484924316,-8.068597793579102,4.460221290588379,-0.6071821451187134,-0.0574196390807628,0.178367406129837,#
-4.785645484924316,-8.068597793579102,4.460221290588379,-0.6120689511299133,-0.0293206684291362,0.2199050188064575,#
-4.835894107818604,-7.793423175811768,4.316651821136475,-0.5583143830299377,-0.0708582773804664,0.2052446752786636,#
-4.634897232055664,-7.877171993255615,3.81655216217041,-0.554649293422699,-0.2504473626613617,0.2137965410947799,#
-4.67078971862793,-7.965706348419189,3.5030922889709477,-0.6646018028259277,-0.310310423374176,0.2309002727270126,#
-4.924428939819336,-7.944170951843262,3.562912940979004,-0.7403469085693359,-0.2883199155330658,0.2150182276964187,#
-4.924428939819336,-7.944170951843262,3.562912940979004,-0.8722898364067078,-0.2553341388702392,0.1575985848903656,#
-4.878964900970459,-7.934599876403809,3.4672000408172607,-0.95169997215271,-0.3225273489952087,0.1514901220798492,#
-4.821537494659424,-8.398807525634766,2.945564746856689,-0.98590749502182,-0.3579564988613128,0.175924003124237,#
-5.005784511566162,-8.650053977966309,2.4287149906158447,-1.0946382284164429,-0.4092676639556885,0.2296785563230514,#
-5.350350856781006,-8.688338279724121,2.2133607864379883,-1.1618314981460571,-0.4068242609500885,0.2199050188064575,#
-5.417350769042969,-8.848658561706543,2.249253273010254,-1.141062617301941,-0.3689517080783844,0.129499614238739,#
-5.417350769042969,-8.848658561706543,2.249253273010254,-0.95169997215271,-0.4776825606822967,0.1172826737165451,#
-5.39342212677002,-8.810372352600098,2.2229323387146,-0.8710681796073914,-0.5668662190437317,0.1637070626020431,#
-5.469992637634277,-8.688338279724121,1.7132610082626345,-0.7989881634712219,-0.680483877658844,0.2382304221391677,#
-5.943771839141846,-8.843873023986816,1.275374412536621,-0.8808417320251465,-0.7476770281791687,0.2296785563230514,#
-6.541977405548096,-9.339186668395996,1.6151552200317385,-0.919935941696167,-0.758672297000885,0.2137965410947799,#
-6.541977405548096,-9.339186668395996,1.6151552200317385,-0.8722898364067078,-0.786771297454834,0.2089097648859024,#
-6.525227069854736,-9.69332504272461,2.2683956623077397,-0.8087617754936218,-0.8783983588218689,0.1930277347564697,#
-6.1256256103515625,-9.028119087219238,2.2683956623077397,-0.6462763547897339,-1.273005723953247,0.2235700935125351,#
-5.8097734451293945,-8.83669376373291,1.6869399547576904,-0.5045598149299622,-1.5002408027648926,0.3445178270339966,#
-5.86720085144043,-9.394222259521484,1.0169496536254885,-0.4972296357154846,-1.594311237335205,0.3555130958557129,#
-5.716453552246094,-9.817750930786133,1.2083754539489746,-0.6377245187759399,-1.799556016921997,0.463022232055664,#
-5.716453552246094,-9.817750930786133,1.2083754539489746,-0.554649293422699,-1.8618624210357664,0.5192201733589172,#
-5.185246467590332,-9.633503913879396,1.7491532564163208,-0.4434750974178314,-1.927833914756775,0.5351021885871887,#
-4.520041942596436,-9.336793899536133,2.620140790939331,-0.3445178270339966,-2.0292346477508545,0.5632011890411377,#
-3.988835573196411,-8.891729354858398,2.569891452789306,-0.2235700935125351,-2.0732154846191406,0.5155550837516785,#
-3.950549840927124,-8.169095993041992,2.577069997787476,-0.1563768982887268,-2.085432529449463,0.4911211729049682,#
-3.950549840927124,-8.169095993041992,2.577069997787476,-0.0806318372488021,-1.9705932140350344,0.4972296357154846,#
-4.206582069396973,-7.843672752380371,2.4909284114837646,-0.0733016654849052,-1.852088928222656,0.5082249045372009,#
-4.141976356506348,-8.063812255859375,2.548356056213379,-0.2333436459302902,-1.7079288959503174,0.4434750974178314,#
-3.893122434616089,-8.255237579345703,2.895315170288086,-0.3799469769001007,-1.7005987167358398,0.4434750974178314,#
-4.127618789672852,-8.011170387268066,2.854637384414673,-0.3860554695129394,-1.716480731964111,0.4410317242145538,#
-4.127618789672852,-8.011170387268066,2.854637384414673,-0.2492256760597229,-1.6114150285720823,0.4104893505573272,#
-4.773681163787842,-8.295915603637695,2.395215511322021,-0.2211267054080963,-1.4037269353866575,0.3542913794517517,#
-4.127618789672852,-9.12383270263672,2.943171739578247,-0.2467822879552841,-1.4550381898880005,0.3005368411540985,#
-3.091526985168457,-9.20279598236084,3.352344274520874,-0.2015795856714248,-1.7506881952285769,0.2748812437057495,#
-2.868994235992432,-8.518448829650879,3.775874137878418,-0.0097735561430454,-1.751909852027893,0.3066453039646148,#
-2.71346116065979,-7.994420051574707,4.180261135101318,0.4337015450000763,-1.5430002212524414,0.3323009014129638,#
-2.71346116065979,-7.994420051574707,4.180261135101318,0.605960488319397,-1.2241379022598269,0.3726168274879455,#
-2.225324869155884,-7.487142086029053,4.838287353515625,0.5534276366233826,-1.1435059309005735,0.3665083348751068,#
-1.7132610082626345,-6.723831653594971,4.680361270904541,0.3897205293178558,-1.0030112266540527,0.256555825471878,#
-1.66301167011261,-6.230910301208496,4.749752521514893,0.3848337531089782,-0.7831061482429504,0.1368297785520553,#
-1.9740787744522093,-7.16650390625,4.448256969451904,0.3713951408863067,-0.6047387719154358,0.0745233595371246,#
-1.9740787744522093,-7.16650390625,4.448256969451904,0.2712161839008331,-0.130721315741539,-0.1343863904476165,#
-1.5074783563613892,-7.410572052001953,5.97727108001709,0.1038440242409706,-0.0464243926107883,-0.2968717515468597,#
0.12921242415905,-7.45364236831665,7.920242786407471,-0.2321219593286514,0.0366508327424526,-0.5754181146621704,#
2.0171494483947754,-7.53021240234375,8.803194999694824,-0.3958290219306946,0.1368297785520553,-0.6768187284469604,right
2.4335007667541504,-7.613961696624756,8.745766639709473,-0.546097457408905,0.1979145109653473,-0.6902573704719543,right
3.0652055740356445,-8.956335067749023,10.116853713989258,-0.8490777015686035,0.7256865501403809,-0.8869501948356628,right
3.0652055740356445,-8.956335067749023,10.116853713989258,-0.9932376146316528,1.196038842201233,-1.2326897382736206,right
4.716253280639648,-10.310672760009766,10.533205032348633,-0.989572525024414,1.2913310527801514,-1.3230950832366943,right
6.721438884735107,-10.248459815979004,8.300702095031738,-1.0482138395309448,1.37684965133667,-1.2986613512039185,right
7.867600917816162,-11.349157333374023,7.53021240234375,-1.0592091083526611,1.605306625366211,-1.2864443063735962,right
8.654839515686035,-13.464412689208984,7.625925540924072,-0.63283771276474,2.539902687072754,-1.2876659631729126,right
8.654839515686035,-13.464412689208984,7.625925540924072,0.2260134816169738,3.864219665527344,-1.1826002597808838,right
9.17886734008789,-15.09153175354004,6.687938690185547,0.7220214009284973,4.482396602630615,-1.1361758708953855,right
10.195816040039062,-16.338191986083984,7.491927623748779,1.4037269353866575,5.71019983291626,-1.115407109260559,right
10.724631309509276,-17.34078598022461,5.900700569152832,2.1685078144073486,7.055285453796387,-1.1117420196533203,right
10.61695384979248,-17.529817581176758,0.5814558863639832,2.6681809425354004,7.649028778076172,-1.100746750831604,right
10.61695384979248,-17.529817581176758,0.5814558863639832,4.100006580352783,9.040538787841797,-1.0201148986816406,right
10.504491806030272,-14.825928688049316,-3.8500516414642334,4.8647871017456055,10.80222225189209,-1.0335536003112793,right
11.454442024230955,-12.753745079040527,-3.845265865325928,4.753612995147705,11.790573120117188,-1.132510781288147,right
14.182259559631348,-10.700701713562012,-4.110869407653809,4.096341609954834,13.226064682006836,-0.833195686340332,right
12.117253303527832,-13.512269973754885,-7.274180889129639,3.755488872528076,13.35922908782959,-0.6022953391075134,right
9.458827018737791,-16.02712631225586,-13.569696426391602,3.195952653884888,12.384317398071287,-0.5534276366233826,right
9.458827018737791,-16.02712631225586,-13.569696426391602,2.8245575428009038,10.516345977783203,-0.1612636744976043,right
4.965107440948486,-13.502697944641112,-17.398212432861328,2.0548901557922363,9.574419975280762,-0.2260134816169738,right
0.8398807048797607,-10.207781791687012,-19.695322036743164,0.7953230738639832,7.818844795227051,-0.2015795856714248,right
-1.7539390325546265,-12.043076515197754,-20.645273208618164,0.2968717515468597,5.679657459259033,0.1270562261343002,right
-4.845465660095215,-12.75613784790039,-20.15713882446289,0.2150182276964187,4.7633867263793945,0.3005368411540985,right
-4.845465660095215,-12.75613784790039,-20.15713882446289,0.605960488319397,3.040797472000122,0.4300364553928375,right
-6.415157318115234,-10.411171913146973,-17.12064552307129,0.9785772562026978,2.241809368133545,0.4080459475517273,right
-6.424728870391846,-9.305686950683594,-13.320843696594238,1.767791986465454,0.7061393857002258,0.2626643180847168,right
-5.37906551361084,-9.425328254699709,-10.030712127685549,2.1477389335632324,-0.6022953391075134,0.3567348122596741,right
-4.864608287811279,-8.638089179992676,-6.154339790344238,2.169729471206665,-1.1117420196533203,0.448361873626709,right
-4.979463577270508,-7.401000499725342,-3.304487943649292,2.004800796508789,-1.786117434501648,0.5131116509437561,#
-4.979463577270508,-7.401000499725342,-3.304487943649292,1.5857594013214111,-2.0121307373046875,0.5289937257766724,#
-5.627918720245361,-7.063612461090088,-1.1485549211502075,1.3511940240859983,-2.002357244491577,0.5192201733589172,#
-6.159125804901123,-7.393822193145752,-1.325623631477356,0.9236010909080504,-1.7629051208496094,0.5534276366233826,#
-6.149554252624512,-7.664210796356201,-1.0719845294952393,0.6878139972686768,-1.413500428199768,0.5668662190437317,#
-6.247659683227539,-6.786045074462891,-1.0169496536254885,0.2015795856714248,-1.2155860662460327,0.5338804721832275,#
-6.247659683227539,-6.786045074462891,-1.0169496536254885,-0.1038440242409706,-0.8674030900001526,0.4324798583984375,#
-5.536991596221924,-6.98704195022583,-1.7539390325546265,-0.1478250324726104,-0.7684457898139954,0.411711037158966,#
-5.326423168182373,-6.671189785003662,-2.3090739250183105,-0.3017585575580597,-0.7281299233436584,0.342074453830719,#
-5.134997367858887,-6.065804958343506,-2.581855773925781,-0.4434750974178314,-0.8612945675849915,0.2541124522686004,#
-5.041677951812744,-6.065804958343506,-2.7349963188171387,-0.5729747414588928,-0.998124361038208,0.2333436459302902,#
-5.041677951812744,-6.065804958343506,-2.7349963188171387,-0.8038749694824219,-1.3316470384597778,0.1502684205770492,#
-4.381258487701416,-6.7621169090271,-3.280559778213501,-1.1251806020736694,-1.7653485536575315,0.0769667476415634,#
-3.893122434616089,-7.594818592071533,-3.2374887466430664,-1.2778924703598022,-2.021904230117798,0.0769667476415634,#
-3.555734634399414,-8.181060791015625,-3.266202926635742,-1.2522368431091309,-2.5851054191589355,-0.2883199155330658,#
-3.072384119033813,-8.169095993041992,-3.797409296035767,-1.0054545402526855,-2.892972469329834,-0.4434750974178314,#
-2.5866410732269287,-7.960920810699463,-3.019742012023926,-0.6707102656364441,-3.55146598815918,-0.6572716236114502,#
-2.5866410732269287,-7.960920810699463,-3.019742012023926,-0.9223793148994446,-4.192855358123779,-0.7281299233436584,#
-2.438286304473877,-8.341379165649414,-1.6701902151107788,-1.220472812652588,-4.472623348236084,-0.7256865501403809,#
-1.6654045581817627,-10.02592658996582,-1.660618782043457,-1.456259846687317,-4.802481174468994,-0.730573296546936,#
-0.0765703245997428,-10.949556350708008,2.048256158828736,-1.6786081790924072,-5.226408958435059,-0.577861487865448,#
0.0119641125202178,-11.990432739257812,6.690331935882568,-1.8337633609771729,-5.364460468292236,-0.5033381581306458,#
0.0119641125202178,-11.990432739257812,6.690331935882568,-1.8129945993423464,-5.351021766662598,-0.3506263196468353,#
-1.442872166633606,-13.28255844116211,6.441478729248047,-1.4892456531524658,-5.241069316864014,-0.2150182276964187,#
-2.421536445617676,-13.25145149230957,4.120440483093262,-0.5986303091049194,-4.592349529266357,0.1197260618209838,#
-2.3162522315979004,-10.535597801208496,5.704488754272461,-0.2675510942935943,-3.633319616317749,0.4935645759105682,#
-1.179661512374878,-8.95394229888916,10.26760196685791,-0.3457395434379577,-3.2961316108703613,0.6536065340042114,#
-1.8113667964935305,-9.446864128112791,9.509077072143556,-0.411711037158966,-3.088443756103516,0.5289937257766724,#
-1.8113667964935305,-9.446864128112791,9.509077072143556,0.1038440242409706,-2.732930421829224,0.1649287492036819,#
-2.636890411376953,-8.9850492477417,7.3675007820129395,0.4068242609500885,-2.4775965213775635,0.1453816443681717,#
-2.514856576919556,-7.140182495117188,4.7952165603637695,0.8307521939277649,-2.0561118125915527,0.3445178270339966,#
-1.8783657550811768,-6.812366485595703,5.491527557373047,0.8063183426856995,-1.9950270652771,0.4654656052589416,#
-0.9571290016174316,-8.307880401611328,7.795816421508789,0.333522617816925,-1.8740792274475095,0.471574068069458,#
-0.9571290016174316,-8.307880401611328,7.795816421508789,-0.3689517080783844,-1.830098390579224,0.2504473626613617,#
-0.8925228118896484,-9.525827407836914,7.484748840332031,-0.439810037612915,-1.803221106529236,0.0464243926107883,#
-1.373480200767517,-9.327221870422363,6.486942291259766,-0.0708582773804664,-1.5613255500793457,-0.1441599577665329,#
-1.4380863904953003,-8.621339797973633,5.917449951171875,0.4581354260444641,-1.327981948852539,-0.1429382413625717,#
-1.1653046607971191,-8.50887680053711,5.900700569152832,0.6132906079292297,-1.3096565008163452,-0.1832541674375534,#
-1.1653046607971191,-8.50887680053711,5.900700569152832,0.6572716236114502,-1.2852225303649902,-0.2651077210903168,#
-1.057627558708191,-8.86780071258545,6.044269561767578,0.5473191142082214,-1.202147364616394,-0.3274141252040863,#
-1.1533405780792236,-8.606983184814453,5.864808082580566,0.4752391576766968,-1.132510781288147,-0.3323009014129638,#
-1.1820544004440308,-8.549554824829102,5.61116886138916,0.4056025743484497,-0.9883508682250975,-0.2577775418758392,#
-1.062413215637207,-9.075976371765137,5.575276851654053,0.4056025743484497,-0.9174925684928894,-0.2211267054080963,#
-0.902094066143036,-9.521041870117188,5.362315654754639,0.388498842716217,-0.7977665066719055,-0.1637070626020431,#
-0.902094066143036,-9.521041870117188,5.362315654754639,0.4544703662395477,-0.6352811455726624,-0.1710372269153595,#
-1.1389836072921753,-8.853443145751953,5.331209182739258,0.4068242609500885,-0.5363238453865051,-0.178367406129837,#
-1.3280165195465088,-8.212166786193848,5.522634029388428,0.3127537965774536,-0.3738385140895843,-0.155155211687088,#
-1.0289137363433838,-8.616554260253906,5.793023586273193,0.2101314514875412,-0.3555130958557129,-0.0720799788832664,#
-0.82791668176651,-8.6907320022583,5.687739372253418,0.1624853760004043,-0.365286648273468,-0.0268772784620523,#
-0.82791668176651,-8.6907320022583,5.687739372253418,0.1490467190742492,-0.333522617816925,0.0122169442474842,#
-0.8901299238204956,-8.164310455322266,5.467599868774414,0.1771456897258758,-0.2785463333129883,0.0280989725142717,#
-1.1413763761520386,-7.621140003204346,5.221138954162598,0.2137965410947799,-0.1270562261343002,0.0586413368582725,#
-1.2490534782409668,-7.707281589508057,5.1637115478515625,0.0977355539798736,-0.0256555844098329,0.0195471122860908,#
-1.0456634759902954,-7.865207672119141,5.228317260742188,-0.0048867780715227,-0.0158820282667875,-0.0378725305199623,#
-0.9834501147270204,-8.248059272766113,5.204389572143555,-0.2260134816169738,-0.0659715011715889,-0.1453816443681717,#
-0.9834501147270204,-8.248059272766113,5.204389572143555,-0.3078669905662536,-0.0598630309104919,-0.1637070626020431,#
-1.1006983518600464,-8.410772323608398,5.2115678787231445,-0.310310423374176,-0.0574196390807628,-0.1478250324726104,#
-1.0695916414260864,-8.48016357421875,5.288137912750244,-0.2260134816169738,-0.0659715011715889,-0.069636583328247,#
-0.9260223507881165,-8.228917121887207,5.201996326446533,-0.155155211687088,-0.0855186134576797,-0.0232121963053941,#
-0.9379864931106568,-7.939385414123535,5.099104881286621,-0.0525328628718853,-0.0904053896665573,-0.0366508327424526,#
-0.9379864931106568,-7.939385414123535,5.099104881286621,-0.0977355539798736,-0.0525328628718853,-0.0830752253532409,#
-1.1365907192230225,-7.865207672119141,4.914857387542725,-0.1747023165225982,-0.031764056533575,-0.0928487852215766,#
-0.9475577473640442,-8.183453559875488,4.867001533508301,-0.3506263196468353,-0.040315918624401,-0.1099525094032287,#
-0.9044869542121888,-8.501699447631836,5.197210788726807,-0.4825693070888519,-0.0354291386902332,-0.100178949534893,#
-0.9308080077171326,-8.748159408569336,5.42692232131958,-0.4691306948661804,-0.0134386392310261,-0.0952921733260154,#
-0.9308080077171326,-8.748159408569336,5.42692232131958,-0.3506263196468353,0.0256555844098329,-0.1258345395326614,#
-1.0408778190612793,-8.724230766296387,5.130211353302002,-0.2125748395919799,0.0464243926107883,-0.1612636744976043,#
-0.851844847202301,-8.298308372497559,4.962714195251465,-0.1747023165225982,0.040315918624401,-0.1685938388109207,#
-0.8997013568878174,-8.049454689025879,4.835894107818604,-0.1710372269153595,0.0623064190149307,-0.1502684205770492,#
-0.935593605041504,-8.080562591552734,4.831109046936035,-0.199136197566986,0.0965138673782348,-0.129499614238739,#
-0.8805587291717529,-8.154739379882812,4.862215518951416,-0.3457395434379577,0.1649287492036819,-0.100178949534893,#
-0.8805587291717529,-8.154739379882812,4.862215518951416,-0.4740174412727356,0.199136197566986,-0.1160609796643257,#
-0.8398807048797607,-8.221738815307617,4.639683246612549,-0.5277720093727112,0.2028012871742248,-0.1246128380298614,#
-0.787238597869873,-8.446663856506348,4.520041942596436,-0.6169556975364685,0.21135313808918,-0.1734806150197982,#
-0.7465606331825256,-8.551947593688965,4.34536600112915,-0.63283771276474,0.2260134816169738,-0.2284568697214126,#
-0.672383189201355,-8.312665939331055,4.098905563354492,-0.6047387719154358,0.2260134816169738,-0.2553341388702392,#
-0.672383189201355,-8.312665939331055,4.098905563354492,-0.522885262966156,0.2260134816169738,-0.3310791850090027,#
-0.7345964908599854,-7.83410120010376,3.967299938201904,-0.517998456954956,0.2235700935125351,-0.3701734542846679,#
-0.7393822073936462,-7.63310432434082,3.73758864402771,-0.5448757410049438,0.2150182276964187,-0.4520269632339477,#
-0.6604190468788147,-8.094919204711914,3.553341627120972,-0.53143709897995,0.1808107793331146,-0.5595360994338989,#
-0.2847459018230438,-8.930014610290527,3.646661758422852,-0.4373666048049927,0.1563768982887268,-0.6303943395614624,#
-0.1507478207349777,-8.492127418518066,3.91705060005188,-0.0549762547016143,0.130721315741539,-0.785549521446228,#
-0.1507478207349777,-8.492127418518066,3.91705060005188,0.3823903799057007,0.123391143977642,-0.9920158982276917,#
-0.1914258003234863,-7.724031925201416,3.414557933807373,0.6670452356338501,0.129499614238739,-1.1141853332519531,#
-0.1411765366792678,-6.982256412506104,3.13220477104187,1.2326897382736206,0.1026223376393318,-1.3145432472229004,#
-0.1794617027044296,-7.037291049957275,3.4743783473968506,1.9925836324691768,0.1588202863931656,-1.5503302812576294,#
-0.2033899277448654,-4.840680122375488,4.517649173736572,2.515469074249268,0.2993151545524597,-1.640735745429993,#
-0.2033899277448654,-4.840680122375488,4.517649173736572,2.1795029640197754,0.5583143830299377,-1.6285187005996704,#
-0.7322037816047668,-2.359323024749756,4.852644443511963,1.4868022203445437,0.5705313086509705,-1.5906461477279663,#
-0.138783723115921,-3.5581274032592773,4.132404804229736,-0.0708582773804664,0.2052446752786636,-1.8019993305206297,#
1.938186287879944,-12.772887229919434,6.0610198974609375,-0.707361102104187,0.1197260618209838,-1.9412726163864136,#
1.902293920516968,-14.467005729675291,6.829115867614746,-0.1356080919504165,0.3432961404323578,-1.9901403188705444,#
1.902293920516968,-14.467005729675291,6.829115867614746,2.208823680877685,0.0195471122860908,-1.97181499004364,#
0.1818545311689376,-9.131011009216309,5.632704257965088,3.5600175857543945,-0.6768187284469604,-1.1740483045578003,#
2.031506299972534,-11.140981674194336,6.479763507843018,2.6510770320892334,-1.007897973060608,-0.9003888368606567,#
2.227717876434326,-16.003198623657227,7.743173599243164,-0.5351021885871887,-1.3548591136932373,-0.4300364553928375,#
2.313859462738037,-19.901107788085938,9.42054271697998,-1.4196090698242188,-1.435490965843201,-0.1563768982887268,#
1.8448662757873533,-19.28614997863769,8.535198211669922,-1.2766708135604858,-1.6016414165496826,0.7281299233436584,#
1.8448662757873533,-19.28614997863769,8.535198211669922,-0.3726168274879455,-1.7910041809082031,1.962041258811951,#
1.0456634759902954,-17.651853561401367,7.178467750549316,-0.5057815313339233,-1.8276549577713013,2.4226200580596924,#
0.7657032012939453,-17.333606719970703,7.147361278533936,-1.035996913909912,-1.641957402229309,2.922293186187744,#
0.7489535212516785,-16.101303100585938,7.611568450927734,-1.3731845617294312,-1.3573025465011597,3.390202283859253,#
0.6245267391204834,-13.256237030029297,7.408178806304932,-1.3072130680084229,-1.1740483045578003,3.5539093017578125,#
0.6245267391204834,-13.256237030029297,7.408178806304932,-1.1031900644302368,-0.8698464632034302,3.776257514953613,#
0.3158525824546814,-10.547561645507812,7.094719409942627,-1.233911395072937,-0.7757760286331177,3.8727715015411377,#
0.1052841916680336,-9.717252731323242,5.938986301422119,-1.4745851755142212,-0.7342383861541748,3.980280637741089,#
-0.0191425811499357,-8.451449394226074,4.706681728363037,-0.98590749502182,-0.7635590434074402,4.0865678787231445,#
-0.1124626696109771,-6.936792850494385,3.572484016418457,-0.6462763547897339,-0.7501204013824463,4.075572967529297,#
-0.3541377484798431,-4.929214477539063,2.3856441974639893,0.1014006435871124,-0.7757760286331177,3.716394662857056,#
-0.3541377484798431,-4.929214477539063,2.3856441974639893,0.4153760969638824,-0.8625163435935974,3.191066026687622,#
-0.8638089299201965,-2.945564746856689,1.356730580329895,0.4324798583984375,-0.926044464111328,2.9809346199035645,#
-1.5960125923156738,-2.5866410732269287,0.3900300860404968,0.3787252902984619,-1.0494356155395508,2.718270301818848,#
-2.4885356426239014,-2.6153552532196045,0.3349951505661011,0.199136197566986,-1.0372185707092283,2.6132044792175293,#
-2.577069997787476,-2.871387243270874,1.0217353105545044,-0.128277912735939,-1.0726476907730105,2.3627572059631348,#
-2.577069997787476,-2.871387243270874,1.0217353105545044,-0.7708892226219177,-1.4159438610076904,1.7177023887634275,#
-1.6773687601089478,-3.1896328926086426,1.6247265338897705,-0.9639169573783876,-1.7238109111785889,1.4660333395004272,#
-1.435693621635437,-3.141776323318481,2.4741785526275635,-1.1630531549453735,-2.1575124263763428,1.011563062667847,#
-1.7156537771224976,-4.5391845703125,2.3473589420318604,-0.8845068216323853,-2.1599559783935547,0.7354600429534912,#
-1.2921242713928225,-7.209574222564697,2.2372891902923584,-0.971247136592865,-2.144073724746704,0.5680879354476929,#
-1.2921242713928225,-7.209574222564697,2.2372891902923584,-1.5918679237365725,-2.3468751907348637,0.0354291386902332,#
-0.9595218896865844,-10.573883056640623,3.1130621433258057,-1.6578394174575806,-2.5264639854431152,-0.365286648273468,#
-0.6412764191627502,-11.57168960571289,4.931607723236084,-1.2461284399032593,-2.499586820602417,-0.3542913794517517,#
-0.696311354637146,-8.798408508300781,4.981856822967529,-0.6462763547897339,-2.131856918334961,-0.1319430023431778,#
-0.8111668825149536,-8.60219669342041,4.149154186248779,-0.554649293422699,-2.05366849899292,-0.1844758540391922,#
-0.4666004180908203,-11.96172046661377,4.60139799118042,-0.9920158982276917,-1.9950270652771,-0.2015795856714248,#
-0.4666004180908203,-11.96172046661377,4.60139799118042,-1.2766708135604858,-1.8569756746292116,-0.0928487852215766,#
-0.0741775035858154,-11.509476661682127,6.2189459800720215,-1.1105202436447144,-1.7115939855575562,-0.0916270837187767,#
-0.3732803165912628,-8.927621841430664,5.321637630462647,-0.4092676639556885,-1.381736397743225,-0.1368297785520553,#
-0.3637090623378753,-8.635696411132812,4.261617183685303,-0.1722589135169983,-1.1618314981460571,-0.1918060332536697,#
0.1411765366792678,-9.363115310668944,4.60139799118042,-0.2296785563230514,-1.0983033180236816,-0.1380514800548553,#
0.1411765366792678,-9.363115310668944,4.60139799118042,-0.2712161839008331,-0.833195686340332,-0.1404948681592941,#
0.0909272655844688,-8.86780071258545,5.32403039932251,-0.1869192570447921,-0.5680879354476929,-0.1881409436464309,#
-0.1076770275831222,-8.00638484954834,4.560719966888428,-0.0537545569241046,-0.1466033309698104,-0.3115321099758148,#
0.1818545311689376,-8.791230201721191,3.902693748474121,-0.1246128380298614,-0.0647498071193695,-0.42270627617836,#
1.1581261157989502,-9.731609344482422,4.852644443511963,-0.2418954968452453,-0.0366508327424526,-0.4251496791839599,#
2.9048867225646973,-9.614361763000488,6.664010524749756,-0.42270627617836,0.0219905003905296,-0.499673068523407,#
2.9048867225646973,-9.614361763000488,6.664010524749756,-0.4129327237606048,0.1392731666564941,-0.63283771276474,#
5.462814331054688,-9.226724624633787,8.262415885925293,-0.4581354260444641,0.2932066619396209,-0.6487197875976562,#
8.032705307006836,-9.461220741271973,9.65503978729248,-0.577861487865448,0.7562289237976074,-0.8979454636573792,#
9.501898765563965,-10.112068176269531,11.564510345458984,-0.5167768001556396,1.0494356155395508,-1.3658545017242432,#
9.535398483276367,-8.925228118896484,11.68175983428955,0.0818535313010215,1.93272066116333,-1.533226490020752,#
9.535398483276367,-8.925228118896484,11.68175983428955,0.6975875496864319,2.6070961952209477,-1.6541743278503418,#
11.327622413635254,-8.353343963623047,11.755936622619627,0.939483106136322,2.90396785736084,-1.8288766145706177,#
14.407185554504396,-7.554140567779541,11.038090705871582,0.3542913794517517,3.182514190673828,-1.9632630348205569,#
16.335800170898438,-8.233702659606934,8.126025199890137,-0.4593571126461029,3.85566782951355,-2.095206022262573,#
18.56351852416992,-13.17248821258545,5.491527557373047,-0.261442631483078,4.561807155609131,-2.0292346477508545,right
18.56351852416992,-13.17248821258545,5.491527557373047,0.4129327237606048,6.201321125030518,-1.5527737140655518,right
19.29572105407715,-14.70389461517334,1.9453648328781128,1.031110167503357,8.13648509979248,-1.5283397436141968,right
17.17807388305664,-11.21515941619873,1.964507341384888,0.9504783153533936,9.34351921081543,-1.7213674783706665,right
17.096717834472656,-10.040283203125,-0.1866401582956314,0.5351021885871887,11.362980842590332,-1.808107852935791,right
18.197416305541992,-12.26321506500244,-5.395814895629883,0.2150182276964187,11.946950912475586,-1.6627261638641355,right
21.42293930053711,-15.87877082824707,-8.800802230834961,-0.3139754831790924,13.081904411315918,-1.115407109260559,right
21.42293930053711,-15.87877082824707,-8.800802230834961,-0.2626643180847168,14.764178276062012,-0.8002098798751831,right
21.65983009338379,-12.191431045532228,-5.848058700561523,-0.4153760969638824,15.342039108276367,-0.7354600429534912,right
18.776477813720703,-8.752944946289062,-10.868200302124023,-1.1716049909591677,14.73974323272705,-0.3823903799057007,right
13.555339813232422,-13.280166625976562,-20.228923797607425,-0.9162708520889282,11.444833755493164,0.4275930821895599,right
8.772088050842285,-12.930814743041992,-19.798213958740234,-0.0329857505857944,10.03377628326416,0.6817055344581604,right
8.772088050842285,-12.930814743041992,-19.798213958740234,0.9846857786178588,7.838391780853271,0.235787034034729,right
6.257230758666992,-8.465806007385254,-18.3912353515625,0.9150491952896118,6.835380554199219,-0.0195471122860908,right
2.964707374572754,-9.324830055236816,-17.29292869567871,-0.1404948681592941,5.14455509185791,-0.2455605864524841,right
0.7728817462921143,-10.181459426879885,-16.852649688720703,-1.1276240348815918,3.7848095893859854,-0.0122169442474842,right
-0.6939185857772827,-9.430113792419434,-15.096318244934082,-1.1129636764526367,3.1544151306152344,0.069636583328247,right
-1.6031911373138428,-9.23390293121338,-13.373485565185549,-0.3591781854629516,2.0756590366363525,0.1014006435871124,right
-1.6031911373138428,-9.23390293121338,-13.373485565185549,0.4679089784622192,1.187487006187439,0.0745233595371246,right
-2.469392776489258,-9.229117393493652,-12.741781234741213,0.7379034161567688,0.7916580438613892,0.1343863904476165,right
-3.13220477104187,-8.398807525634766,-12.399606704711914,1.1276240348815918,0.1185043603181839,0.2895416021347046,right
-3.5437703132629395,-8.425127983093262,-11.11466121673584,1.2326897382736206,-0.3200839459896087,0.3872771561145782,right
-3.8835511207580566,-8.640481948852539,-10.217352867126465,1.2534584999084473,-0.4337015450000763,0.42270627617836,right
-3.8835511207580566,-8.640481948852539,-10.217352867126465,1.1361758708953855,-0.6780403852462769,0.4361449182033539,right
-4.5391845703125,-8.484949111938477,-9.626325607299805,1.0066763162612915,-0.7989881634712219,0.4422534108161926,right
-4.230510234832764,-8.908478736877441,-9.877571105957031,0.5522059202194214,-1.0335536003112793,0.4898994863033294,right
-3.94097900390625,-9.877571105957031,-10.092925071716309,-0.2211267054080963,-1.2583452463150024,0.4862344264984131,right
-3.0173492431640625,-10.1336030960083,-9.372685432434082,-0.4324798583984375,-1.3963968753814695,0.4605787992477417,right
-3.0173492431640625,-10.1336030960083,-9.372685432434082,-0.4642439186573028,-1.8704142570495603,0.393385648727417,right
-2.2133607864379883,-9.949356079101562,-8.444271087646484,-0.0158820282667875,-2.553341627120972,0.4104893505573272,right
-1.392622709274292,-10.045069694519045,-7.70249605178833,0.1502684205770492,-2.9235148429870605,0.4727957546710968,#
-0.4809573292732239,-8.963513374328613,-6.185446262359619,0.1014006435871124,-3.661418199539185,0.6291726231575012,#
0.3493521213531494,-9.205188751220703,-5.606383323669434,-0.0671931952238082,-4.040143966674805,0.707361102104187,#
0.9786643981933594,-9.89432144165039,-5.237888813018799,-0.3408527672290802,-4.751170158386231,0.6731536388397217,#
0.9786643981933594,-9.89432144165039,-5.237888813018799,-0.3127537965774536,-5.371790885925293,0.5900784730911255,#
1.6917256116867063,-10.50209903717041,-3.931407451629639,-0.3225273489952087,-5.708978652954102,0.5253286361694336,#
2.452643394470215,-10.73180866241455,-3.7328033447265625,-0.4263713657855987,-6.128019332885742,0.3310791850090027,#
3.5054850578308105,-11.30130100250244,-3.8500516414642334,-1.155722975730896,-6.586154937744141,0.3408527672290802,#
4.874179840087891,-12.40439224243164,-3.2518460750579834,-1.4318259954452517,-6.846375942230225,0.3432961404323578,#
4.874179840087891,-12.40439224243164,-3.2518460750579834,-1.9730366468429563,-7.281299114227295,0.5302154421806335,#
6.80040168762207,-12.949954986572266,-0.7585247755050659,-2.300450563430786,-7.314284801483154,0.6365028619766235,#
6.69990348815918,-13.332807540893556,2.6392831802368164,-2.97604775428772,-6.980762481689453,0.5888567566871643,#
4.326223373413086,-12.588640213012695,3.81655216217041,-2.592435598373413,-6.465207099914551,0.200357899069786,#
3.627518892288208,-9.674181938171388,4.6301116943359375,-1.9449377059936523,-6.225755214691162,0.1368297785520553,#
5.357529640197754,-9.65503978729248,9.080761909484863,-0.7476770281791687,-5.816487312316895,0.1368297785520553,#
5.357529640197754,-9.65503978729248,9.080761909484863,0.2785463333129883,-5.4402055740356445,0.2968717515468597,#
4.721039295196533,-9.269794464111328,8.585447311401367,0.471574068069458,-5.309484004974365,0.4141544103622436,#
3.077169895172119,-7.482356548309326,6.003591537475586,0.9248227477073668,-4.7951507568359375,0.5021164417266846,#
2.411965131759644,-5.058426856994629,6.221338748931885,1.1349540948867798,-3.772592544555664,0.5534276366233826,#
2.68953275680542,-4.783252716064453,10.796415328979492,1.2216944694519043,-3.1898443698883057,0.5008947253227234,#
2.68953275680542,-4.783252716064453,10.796415328979492,0.5790832042694092,-2.2491395473480225,0.1734806150197982,#
2.203789472579956,-8.717053413391113,11.519047737121582,0.5607577562332153,-1.9840317964553835,0.0342074446380138,#
0.7896314859390259,-7.817351341247559,8.422735214233398,0.707361102104187,-1.8484238386154173,-0.0256555844098329,#
-0.0358923412859439,-6.711867332458496,5.704488754272461,0.6511631608009338,-1.5234529972076416,-0.040315918624401,#
0.2177468687295913,-8.652446746826172,5.943771839141846,0.5570926666259766,-1.2864443063735962,0.069636583328247,#
0.2177468687295913,-8.652446746826172,5.943771839141846,-0.3078669905662536,-0.8014315962791443,0.5876350998878479,#
-0.1818545311689376,-10.449455261230469,7.001399040222168,-1.4648116827011108,-0.2785463333129883,0.3359659910202026,#
-1.0959126949310305,-12.571890830993652,5.66620397567749,-1.483137130737305,-0.0439810007810592,0.0342074446380138,#
-1.88075852394104,-12.435498237609863,5.355136871337891,-1.1716049909591677,0.1881409436464309,-0.0977355539798736,#
-2.1343977451324463,-10.54516887664795,5.37906551361084,-0.896723747253418,0.2321219593286514,-0.0757450610399246,#
-2.0554347038269043,-8.688338279724121,5.175675392150879,-0.1771456897258758,0.1319430023431778,-0.1820324808359146,#
-2.0554347038269043,-8.688338279724121,5.175675392150879,-0.1368297785520553,-0.0965138673782348,-0.1380514800548553,#
-2.368894338607788,-8.22413158416748,4.543970108032227,-0.3982723951339721,-0.1490467190742492,-0.0806318372488021,#
-2.8043880462646484,-8.293522834777832,3.684947013854981,-1.0653176307678225,-0.2186833024024963,0.0061084721237421,#
-2.861815929412842,-9.104689598083496,3.608376264572144,-1.483137130737305,-0.3347443044185638,0.0720799788832664,#
-2.5866410732269287,-10.124032974243164,3.751945972442627,-1.5320048332214355,-0.3872771561145782,0.0708582773804664,#
-2.5866410732269287,-10.124032974243164,3.751945972442627,-1.1838220357894895,-0.4813476204872131,0.0024433890357613,#
-2.4335007667541504,-10.37767219543457,3.2279179096221924,-0.8551861643791199,-0.5094466209411621,-0.0329857505857944,#
-2.5986053943634038,-9.877571105957031,2.543570280075073,-0.2541124522686004,-0.4740174412727356,-0.0769667476415634,#
-2.7804601192474365,-8.788837432861328,2.3545374870300293,0.0574196390807628,-0.3897205293178558,-0.1185043603181839,#
-2.7254250049591064,-8.877371788024902,2.785245418548584,0.0366508327424526,-0.342074453830719,-0.1148392781615257,#
-2.452643394470215,-9.439685821533203,3.491128206253052,-0.1429382413625717,-0.3066453039646148,-0.0219905003905296,#
-2.452643394470215,-9.439685821533203,3.491128206253052,-0.393385648727417,-0.2883199155330658,0.0879620015621185,#
-2.579463005065918,-9.54496955871582,3.1824538707733154,-0.4043808877468109,-0.2712161839008331,0.1319430023431778,#
-2.644068956375122,-9.631111145019531,2.84506630897522,-0.3371876776218414,-0.2309002727270126,0.2199050188064575,#
-2.801995038986206,-9.66221809387207,2.7421746253967285,-0.4080459475517273,-0.1685938388109207,0.2675510942935943,#
-2.9383859634399414,-10.006784439086914,2.335394859313965,-0.4178195297718048,-0.1197260618209838,0.261442631483078,#
-2.9383859634399414,-10.006784439086914,2.335394859313965,-0.3738385140895843,-0.0500894747674465,0.2480039745569229,#
-2.799602746963501,-10.001997947692873,2.1511476039886475,-0.3518480062484741,-0.0671931952238082,0.2455605864524841,#
-2.5938196182250977,-9.7938232421875,1.9932212829589844,-0.2455605864524841,-0.1099525094032287,0.2431172132492065,#
-2.5196423530578613,-9.518648147583008,2.0961124897003174,-0.1795890927314758,-0.1392731666564941,0.2382304221391677,#
-2.617748022079468,-9.18126106262207,2.3736801147460938,-0.199136197566986,-0.1502684205770492,0.2675510942935943,#
-2.617748022079468,-9.18126106262207,2.3736801147460938,-0.3029802441596985,-0.1563768982887268,0.2968717515468597,#
-2.581855773925781,-9.19561767578125,2.187039852142334,-0.3787252902984619,-0.2431172132492065,0.2895416021347046,#
-2.3569302558898926,-9.564111709594728,1.947757601737976,-0.4153760969638824,-0.3090887069702148,0.3005368411540985,#
-2.1990041732788086,-10.25802993774414,1.4787644147872925,-0.2993151545524597,-0.4019374847412109,0.2528907656669616,#
-2.00518536567688,-10.210174560546877,1.969292998313904,-0.1661504507064819,-0.4300364553928375,0.199136197566986,#
-2.1535403728485107,-9.65503978729248,2.1918253898620605,0.0659715011715889,-0.3665083348751068,0.1661504507064819,#
-2.1535403728485107,-9.65503978729248,2.1918253898620605,0.3713951408863067,-0.2382304221391677,0.128277912735939,#
-2.256431579589844,-9.135796546936035,2.2061824798583984,0.411711037158966,-0.2150182276964187,0.1331647038459777,#
-2.108076810836792,-8.796016693115234,2.1272192001342773,0.3066453039646148,-0.2015795856714248,0.2309002727270126,#
-2.2707886695861816,-8.841480255126953,1.887937068939209,-0.0561979450285434,-0.1966928243637085,0.2809897363185882,#
-2.3856441974639893,-9.162117958068848,1.804188132286072,-0.2333436459302902,-0.1612636744976043,0.2809897363185882,#
-2.3856441974639893,-9.162117958068848,1.804188132286072,-0.4911211729049682,-0.1160609796643257,0.3029802441596985,#
-2.667997360229492,-9.26740264892578,1.7802598476409912,-0.5509842038154602,-0.0952921733260154,0.2736595571041107,#
-2.636890411376953,-9.24825954437256,1.7252250909805298,-0.5204418301582336,-0.0940704718232154,0.256555825471878,#
-2.6321046352386475,-9.355937004089355,2.203789472579956,-0.517998456954956,-0.1356080919504165,0.2040229737758636,#
-2.799602746963501,-9.432506561279297,2.4574286937713623,-0.53143709897995,-0.1649287492036819,0.1747023165225982,#
-3.1274189949035645,-9.119047164916992,2.3162522315979004,-0.471574068069458,-0.1942494213581085,0.129499614238739,#
-3.1274189949035645,-9.119047164916992,2.3162522315979004,-0.4251496791839599,-0.2687727808952331,0.1014006435871124,#
-3.462414264678955,-9.231510162353516,1.6917256116867063,-0.4410317242145538,-0.2993151545524597,0.0720799788832664,#
-3.603590488433838,-9.8871431350708,1.3016955852508545,-0.4544703662395477,-0.3567348122596741,-0.0207688063383102,#
-3.7663028240203857,-10.262815475463867,1.3280165195465088,-0.3775035738945007,-0.494786262512207,-0.0867403075098991,#
-3.9553356170654297,-9.71485996246338,1.3519448041915894,-0.2467822879552841,-0.5412106513977051,-0.0671931952238082,#
-3.9553356170654297,-9.71485996246338,1.3519448041915894,-0.200357899069786,-0.6303943395614624,0.0427593067288398,#
-4.304687976837158,-9.614361763000488,1.22033953666687,-0.2736595571041107,-0.6853706240653992,0.0867403075098991,#
-4.362115383148193,-10.02592658996582,1.2227323055267334,-0.4666872918605804,-0.8344173431396484,0.1356080919504165,#
-4.187439441680908,-10.341779708862305,1.7443678379058838,-0.5192201733589172,-1.0421053171157837,0.1734806150197982,#
-4.419543266296387,-10.24367332458496,1.9860427379608157,-0.4288147687911987,-1.1264023780822754,0.1856975704431533,#
-4.706681728363037,-9.760323524475098,1.8831514120101929,-0.1075091138482093,-1.2363548278808594,0.1575985848903656,#
-4.706681728363037,-9.760323524475098,1.8831514120101929,0.2052446752786636,-1.345085620880127,0.1160609796643257,#
-4.618147850036621,-9.580862045288086,1.368694543838501,0.3310791850090027,-1.4452645778656006,0.1221694499254226,#
-4.005585193634033,-9.865608215332031,1.938186287879944,0.463022232055664,-1.6859383583068848,0.128277912735939,#
-3.797409296035767,-9.970890998840332,2.830709218978882,0.4703523814678192,-1.803221106529236,0.1136175915598869,#
-3.589233875274658,-9.434900283813477,2.847458839416504,0.5961868762969971,-1.875301003456116,0.0952921733260154,#
-3.589233875274658,-9.434900283813477,2.847458839416504,0.8173136115074158,-1.9082868099212649,0.1832541674375534,#
-2.825923442840576,-8.939584732055664,2.227717876434326,0.7989881634712219,-1.924168825149536,0.2064663618803024,#
-2.03629207611084,-9.308080673217772,2.47896409034729,0.5986303091049194,-1.9412726163864136,0.1441599577665329,#
-1.0360921621322632,-9.013763427734377,3.486342430114746,0.1624853760004043,-1.838650107383728,0.1258345395326614,#
-0.3493521213531494,-8.059026718139648,3.4408791065216064,0.0745233595371246,-1.7250326871871948,0.129499614238739,#
-0.3493521213531494,-8.059026718139648,3.4408791065216064,-0.0061084721237421,-1.5087926387786863,0.1685938388109207,#
0.0909272655844688,-7.625925540924072,3.266202926635742,-0.1368297785520553,-1.3841798305511477,0.2284568697214126,#
0.9930213689804076,-7.93699312210083,3.811766624450684,-0.3579564988613128,-1.0885297060012815,0.2541124522686004,#
2.1846470832824707,-7.946564197540283,5.223531246185303,-0.5766398310661316,-0.8564078211784363,0.0525328628718853,#
3.677768468856812,-8.14516830444336,7.255037784576416,-0.6474980711936951,-0.6035171151161194,-0.0439810007810592,#
5.551348686218262,-9.107083320617676,8.499305725097656,-0.6377245187759399,-0.1588202863931656,-0.4373666048049927,#
5.551348686218262,-9.107083320617676,8.499305725097656,-0.388498842716217,0.3323009014129638,-0.8050966858863831,#
7.98963451385498,-9.65503978729248,9.585646629333496,-0.3640649616718292,0.6255075931549072,-0.8283088207244873,#
10.557132720947266,-10.305886268615724,9.966106414794922,-0.0879620015621185,1.147171139717102,-0.9309312105178832,#
12.294322967529297,-11.382657051086426,10.143176078796388,0.5216635465621948,2.2442526817321777,-1.3255385160446167,#
13.37109375,-11.53579807281494,10.595418930053713,0.8405258059501648,2.76347279548645,-1.450151443481445,#
13.37109375,-11.53579807281494,10.595418930053713,1.2290246486663818,3.7298333644866943,-1.4306042194366455,#
14.292329788208008,-11.404192924499512,10.449455261230469,1.1068552732467651,4.186747074127197,-1.3951750993728638,#
16.32862091064453,-13.098311424255373,6.788437843322754,0.4129327237606048,4.863565921783447,-1.3646327257156372,right
17.64228057861328,-16.443477630615234,4.4721856117248535,0.6169556975364685,5.838478088378906,-1.3328686952590942,right
16.572689056396484,-15.022140502929688,1.3495519161224363,1.1813786029815674,6.626470565795898,-1.3108781576156616,right
15.720845222473145,-11.624333381652832,-0.0382851622998714,2.0988712310791016,8.353946685791016,-1.5002408027648926,right
15.720845222473145,-11.624333381652832,-0.0382851622998714,1.8704142570495603,9.959253311157228,-1.3841798305511477,right
15.771093368530272,-10.77488136291504,-2.4287149906158447,1.3255385160446167,10.750911712646484,-1.2143642902374268,right
16.510475158691406,-13.698909759521484,-5.156532764434815,-0.1979145109653473,12.015365600585938,-0.6963658928871155,right
18.32662773132324,-13.878372192382812,-8.12123966217041,-0.6951441764831543,12.557798385620115,-0.4422534108161926,right
17.989240646362305,-13.349557876586914,-9.284152030944824,-0.836860716342926,12.964622497558594,-0.1368297785520553,right
17.989240646362305,-13.349557876586914,-9.284152030944824,-0.3750602006912231,11.876092910766602,0.0952921733260154,right
15.64427375793457,-12.643674850463867,-16.893327713012695,-0.0977355539798736,10.917061805725098,0.3762818872928619,right
8.640481948852539,-8.685946464538574,-23.291732788085938,0.5485408306121826,9.367953300476074,0.6193991303443909,right
4.615755081176758,-9.013763427734377,-22.420747756958008,0.9688037633895874,8.38204574584961,0.445918470621109,right
3.029313325881958,-10.8969144821167,-21.56890296936035,1.0201148986816406,7.631925582885742,0.3127537965774536,right
3.029313325881958,-10.8969144821167,-21.56890296936035,0.989572525024414,5.563596725463867,-0.0635281130671501,right
0.0023928226437419,-9.22433090209961,-21.48515510559082,1.0091196298599243,3.536805391311645,-0.2541124522686004,right
-2.108076810836792,-8.166703224182129,-18.905691146850582,0.8979454636573792,2.725600242614746,-0.1808107793331146,right
-3.390629768371582,-9.06879711151123,-15.65863037109375,0.6230642199516296,1.397618532180786,-0.0415376126766204,right
-4.096512317657471,-9.470791816711426,-13.983654975891112,0.5974085927009583,0.818535327911377,-0.0061084721237421,right
-4.07258415222168,-8.772088050842285,-13.086347579956056,0.8796200752258301,-0.0354291386902332,0.1099525094032287,right
-4.07258415222168,-8.772088050842285,-13.086347579956056,1.2143642902374268,-0.6438329815864563,0.2907632887363434,right
-3.785445213317871,-7.403393745422363,-10.789237022399902,1.3108781576156616,-0.9077189564704896,0.3274141252040863,right
-3.933800458908081,-7.334001541137695,-8.762516975402832,1.1630531549453735,-1.3414205312728882,0.3750602006912231,right
-4.187439441680908,-8.623733520507812,-7.345965385437012,0.7293516397476196,-1.6529526710510254,0.3872771561145782,right
-3.689732551574707,-9.990034103393556,-6.874579429626465,0.5338804721832275,-1.8166598081588743,0.3432961404323578,#
-3.689732551574707,-9.990034103393556,-6.874579429626465,0.155155211687088,-2.137965440750122,0.3029802441596985,#
-3.34995174407959,-10.11924648284912,-6.453442573547363,-0.0610847249627113,-2.288233757019043,0.2883199155330658,#
-2.5124638080596924,-9.992427825927734,-5.223531246185303,-0.3616215586662292,-2.5118038654327397,0.2809897363185882,#
-1.801795244216919,-11.552547454833984,-3.8500516414642334,-0.6939224600791931,-2.858765125274658,0.4385882914066314,#
-1.2610174417495728,-12.3397855758667,-3.644268989562988,-0.785549521446228,-3.011476993560791,0.4789042472839355,#
-0.2392822504043579,-11.349157333374023,-4.086941242218018,-0.7012526392936707,-3.334004163742065,0.5216635465621948,#
-0.2392822504043579,-11.349157333374023,-4.086941242218018,-0.4007157981395721,-3.74815845489502,0.5925218462944031,#
0.6460621356964111,-10.439885139465332,-3.067598581314087,-0.2516690790653229,-3.908200740814209,0.6132906079292297,#
1.146162033081055,-10.604989051818848,-2.122433662414551,-0.1954711079597473,-4.250275135040283,0.680483877658844,#
1.703689694404602,-10.487741470336914,-1.6965112686157229,-0.1979145109653473,-4.405430316925049,0.6951441764831543,#
2.03629207611084,-10.619346618652344,-1.2562319040298462,-0.2040229737758636,-4.758500099182129,0.6792621612548828,#
2.03629207611084,-10.619346618652344,-1.2562319040298462,-0.1368297785520553,-5.01016902923584,0.6365028619766235,#
2.699103832244873,-10.07139015197754,1.1892328262329102,-0.3127537965774536,-5.117678165435791,0.634059488773346,#
3.029313325881958,-10.334601402282717,2.335394859313965,-0.3677300214767456,-5.209305286407471,0.5974085927009583,#
3.2542388439178467,-10.24606704711914,0.7920243144035339,-0.2797680497169494,-5.258172988891602,0.546097457408905,#
4.548755645751953,-8.764908790588379,3.2279179096221924,-0.2712161839008331,-5.27161169052124,0.5888567566871643,#
4.548755645751953,-8.764908790588379,3.2279179096221924,-1.0103412866592407,-5.186092853546143,0.7660024166107178,#
4.515256404876709,-10.918450355529783,5.493920803070068,-1.2473500967025757,-5.017498970031738,0.73912513256073,#
3.2470602989196777,-11.700902938842772,3.775874137878418,-0.860072910785675,-4.65099048614502,0.549762487411499,#
3.5820553302764893,-9.674181938171388,5.230710506439209,0.1612636744976043,-4.267378807067871,0.4618005454540252,#
4.082155227661133,-7.36032247543335,9.719645500183104,0.3860554695129394,-3.9301912784576416,0.5790832042694092,#
2.4335007667541504,-8.965906143188477,9.820144653320312,-0.2480039745569229,-3.2497072219848637,0.7806627750396729,#
2.4335007667541504,-8.965906143188477,9.820144653320312,-0.6914790868759155,-2.6840627193450928,0.4898994863033294,#
1.3184452056884766,-9.434900283813477,7.726424217224121,-0.8063183426856995,-2.4800398349761963,0.4422534108161926,#
0.5288137793540955,-8.166703224182129,5.66620397567749,-0.5558710098266602,-1.8007776737213137,0.5363238453865051,#
-0.1220339611172676,-8.575876235961914,7.647461414337158,-0.6511631608009338,-1.0482138395309448,0.5717529654502869,#
-1.107876896858215,-9.432506561279297,9.674181938171388,-0.7207997441291809,-0.707361102104187,0.5424323678016663,#
-1.107876896858215,-9.432506561279297,9.674181938171388,-1.0188932418823242,-0.5680879354476929,0.499673068523407,#
-2.359323024749756,-10.006784439086914,9.107083320617676,-0.9810206294059752,-0.7061393857002258,0.3982723951339721,#
-2.5292134284973145,-9.521041870117188,7.671389579772949,-0.7879929542541504,-1.1349540948867798,0.3836120665073395,#
-2.596212387084961,-10.198209762573242,6.6352972984313965,-0.8759549260139465,-1.3524158000946045,0.6169556975364685,#
-2.565105676651001,-10.571491241455078,6.467799663543701,-0.8380824327468872,-1.3585243225097656,0.6047387719154358,#
-2.857030153274536,-10.200602531433104,5.245067596435547,-0.554649293422699,-1.257123589515686,0.4092676639556885,#
-2.857030153274536,-10.200602531433104,5.245067596435547,0.0427593067288398,-1.0897514820098877,0.1075091138482093,#
-2.959921598434448,-9.30329418182373,4.448256969451904,0.2553341388702392,-1.0396620035171509,-0.0268772784620523,#
-2.9216365814208984,-8.671588897705078,4.261617183685303,0.4837909936904907,-0.9883508682250975,-0.1490467190742492,#
-3.034099102020264,-7.635497093200684,3.814159393310547,0.5033381581306458,-0.9492565989494324,-0.1209477484226226,#
-3.2159535884857178,-7.317252159118652,3.074777126312256,0.3029802441596985,-0.8637380003929138,-0.0476460866630077,#
-3.2159535884857178,-7.317252159118652,3.074777126312256,-0.003665083553642,-0.7708892226219177,-0.0354291386902332,#
-3.3308091163635254,-7.345965385437012,2.801995038986206,-0.2541124522686004,-0.7195780277252197,-0.0293206684291362,#
-3.115455150604248,-8.465806007385254,3.1657044887542725,-0.5106682777404785,-0.5913001298904419,-0.0794101431965828,#
-2.89052963256836,-9.363115310668944,3.538984537124634,-0.3836120665073395,-0.4874561131000519,-0.2064663618803024,#
-2.935993194580078,-8.992227554321289,3.366701364517212,-0.200357899069786,-0.3958290219306946,-0.2382304221391677,#
-2.935993194580078,-8.992227554321289,3.366701364517212,0.123391143977642,-0.1795890927314758,-0.256555825471878,#
-3.129812002182007,-8.195417404174805,2.737389087677002,0.0769667476415634,0.0342074446380138,-0.2040229737758636,#
-3.395415067672729,-8.499305725097656,2.2157537937164307,-0.0781884491443634,0.1050657257437706,-0.1661504507064819,#
-3.148954391479492,-9.750752449035645,2.0817556381225586,-0.3872771561145782,0.2089097648859024,-0.0610847249627113,#
-3.0939197540283203,-10.310672760009766,2.344966173171997,-0.4727957546710968,0.2321219593286514,-0.007330167107284,#
-3.16331148147583,-9.760323524475098,2.550748825073242,-0.4434750974178314,0.3274141252040863,0.0415376126766204,#
-3.16331148147583,-9.760323524475098,2.550748825073242,-0.2797680497169494,0.3713951408863067,0.1026223376393318,#
-3.0149567127227783,-9.643074989318848,2.4717857837677,-0.2321219593286514,0.3506263196468353,0.1172826737165451,#
-2.667997360229492,-9.717252731323242,3.029313325881958,-0.2296785563230514,0.1966928243637085,0.129499614238739,#
-2.557927370071411,-9.999605178833008,2.6847469806671143,-0.1062874197959899,0.1148392781615257,0.1453816443681717,#
-2.6009981632232666,-9.05683422088623,2.665604591369629,0.0342074446380138,0.0610847249627113,0.1502684205770492,#
-2.6009981632232666,-9.05683422088623,2.665604591369629,0.0415376126766204,-0.0268772784620523,0.1820324808359146,#
-2.5746772289276123,-9.152545928955078,2.706282377243042,-0.0354291386902332,-0.0659715011715889,0.2284568697214126,#
-2.256431579589844,-9.470791816711426,3.153740167617798,-0.2235700935125351,-0.1319430023431778,0.129499614238739,#
-2.132004976272583,-9.72921657562256,3.38823676109314,-0.1710372269153595,-0.1331647038459777,0.0904053896665573,#
-2.132004976272583,-9.717252731323242,3.5126638412475586,-0.0232121963053941,-0.1637070626020431,0.0745233595371246,#
-2.232503652572632,-9.468399047851562,3.259024381637573,0.1930277347564697,-0.2052446752786636,0.0549762547016143,#
-2.232503652572632,-9.468399047851562,3.259024381637573,0.2993151545524597,-0.1893626451492309,0.0561979450285434,#
-2.2013967037200928,-9.473184585571287,3.230310440063477,0.333522617816925,-0.1747023165225982,0.0280989725142717,#
-2.225324869155884,-9.06879711151123,3.1728827953338623,0.3677300214767456,-0.1502684205770492,0.0134386392310261,#
-2.2396819591522217,-9.097511291503906,2.971885919570923,0.3237490355968475,-0.0390942245721817,0.0244338884949684,#
-2.3186452388763428,-8.910871505737305,3.0652055740356445,0.1380514800548553,0.0329857505857944,-0.0171037223190069,#
-2.3186452388763428,-8.910871505737305,3.0652055740356445,0.0879620015621185,0.0684148892760276,-0.0342074446380138,#
-2.414358139038086,-8.685946464538574,3.0005996227264404,0.0012216945178806,0.1490467190742492,-0.0232121963053941,#
-2.421536445617676,-9.229117393493652,2.857030153274536,-0.0012216945178806,0.1490467190742492,-0.0781884491443634,#
-2.4191436767578125,-9.645467758178713,2.699103832244873,0.0794101431965828,0.1404948681592941,-0.1014006435871124,#
-2.4741785526275635,-9.516255378723145,2.6321046352386475,0.152711808681488,0.1661504507064819,-0.0940704718232154,#
-2.4741785526275635,-9.516255378723145,2.6321046352386475,0.1453816443681717,0.178367406129837,-0.0904053896665573,#
-2.715853452682495,-9.298508644104004,2.5124638080596924,0.1123958900570869,0.1698155403137207,-0.0122169442474842,#
-2.8115665912628174,-9.226724624633787,2.493321180343628,-0.0513111688196659,0.1539334952831268,0.0598630309104919,#
-2.8354949951171875,-9.308080673217772,2.53399920463562,-0.1270562261343002,0.1368297785520553,0.0537545569241046,#
-2.8522443771362305,-9.31047248840332,2.749353408813477,-0.1795890927314758,0.1172826737165451,0.0476460866630077,#
-2.830709218978882,-9.19561767578125,2.68953275680542,-0.1050657257437706,0.0928487852215766,0.0439810007810592,#
-2.830709218978882,-9.19561767578125,2.68953275680542,-0.0476460866630077,0.0684148892760276,0.0329857505857944,#
-2.89052963256836,-9.090332984924316,2.756531953811645,0.0232121963053941,0.0293206684291362,0.0195471122860908,#
-2.833101987838745,-8.908478736877441,2.6943180561065674,0.0757450610399246,-0.0048867780715227,0.0085518611595034,#
-2.6967110633850098,-9.049654960632324,2.849851608276367,0.0244338884949684,-0.0293206684291362,0.003665083553642,#
-2.7086753845214844,-9.22433090209961,2.7014968395233154,-0.003665083553642,-0.0427593067288398,-0.0195471122860908,#
-2.7086753845214844,-9.22433090209961,2.7014968395233154,0.0048867780715227,-0.0525328628718853,-0.0061084721237421,#
-2.737389087677002,-9.327221870422363,2.871387243270874,-0.0305423624813556,-0.0476460866630077,0.0024433890357613,#
-2.651247262954712,-9.174081802368164,2.9216365814208984,0.0342074446380138,-0.0757450610399246,-0.0085518611595034,#
-2.581855773925781,-9.305686950683594,2.8761727809906006,0.0366508327424526,-0.0647498071193695,-0.0085518611595034,#
-2.620140790939331,-9.159724235534668,2.854637384414673,0.0268772784620523,-0.0659715011715889,-0.0268772784620523,#
-2.577069997787476,-9.355937004089355,2.933600425720215,0.0439810007810592,-0.0647498071193695,-0.0256555844098329,#
-2.577069997787476,-9.355937004089355,2.933600425720215,0.0280989725142717,-0.0561979450285434,-0.031764056533575,#
-2.4981069564819336,-9.241080284118652,3.0101709365844727,0.0757450610399246,-0.0354291386902332,-0.0268772784620523,#
-2.5196423530578613,-9.399007797241213,2.998206615447998,0.0525328628718853,-0.0219905003905296,-0.0048867780715227,#
-2.569891452789306,-9.276973724365234,2.914458036422729,-0.0207688063383102,0.0122169442474842,-0.0183254163712263,#
-2.667997360229492,-9.439685821533203,2.9072794914245605,-0.0574196390807628,0.0085518611595034,0.0085518611595034,#
-2.667997360229492,-9.439685821533203,2.9072794914245605,-0.0891837030649185,0.0134386392310261,0.0171037223190069,#
-2.6536402702331543,-9.346364974975586,2.9934213161468506,-0.0158820282667875,0.003665083553642,0.0012216945178806,#
-2.737389087677002,-9.126225471496582,2.96949315071106,0.0366508327424526,-0.0048867780715227,-0.0061084721237421,#
-2.711068153381348,-9.166903495788574,3.0317063331604004,0.0171037223190069,-0.0097735561430454,-0.0256555844098329,#
-2.6608188152313232,-9.22433090209961,2.830709218978882,0.040315918624401,-0.0207688063383102,-0.0329857505857944,#
-2.6608188152313232,-9.22433090209961,2.830709218978882,-0.0366508327424526,-0.0464243926107883,-0.0146603342145681,#
-2.6799612045288086,-9.332008361816406,2.931207656860352,-0.0671931952238082,-0.0342074446380138,-0.0122169442474842,#
-2.739781856536865,-9.42054271697998,2.847458839416504,-0.0647498071193695,-0.0623064190149307,0.0158820282667875,#
-2.7254250049591064,-9.446864128112791,2.7972097396850586,-0.0623064190149307,-0.0720799788832664,0.0207688063383102,#
-2.847458839416504,-9.477970123291016,2.849851608276367,-0.0183254163712263,-0.0708582773804664,0.0158820282667875,#
-2.7182462215423584,-9.286543846130373,2.816352128982544,0.0561979450285434,-0.0806318372488021,0.0415376126766204,#
-2.7182462215423584,-9.286543846130373,2.816352128982544,0.0452026948332786,-0.0879620015621185,0.0488677769899368,#
-2.641676187515259,-9.23390293121338,2.943171739578247,-0.0158820282667875,-0.0842969194054603,0.0684148892760276,#
-2.706282377243042,-9.253045082092283,2.9216365814208984,-0.0427593067288398,-0.0916270837187767,0.069636583328247,#
-2.6703903675079346,-9.375079154968262,2.9288151264190674,-0.0171037223190069,-0.0855186134576797,0.0720799788832664,#
-2.65842604637146,-9.250652313232422,2.8043880462646484,0.0439810007810592,-0.0684148892760276,0.0684148892760276,#
-2.65842604637146,-9.250652313232422,2.8043880462646484,0.0549762547016143,-0.0647498071193695,0.0561979450285434,#
-2.596212387084961,-9.207581520080566,2.914458036422729,0.0500894747674465,-0.0574196390807628,0.0525328628718853,#
-2.603391170501709,-9.190832138061523,2.868994235992432,0.0097735561430454,-0.0647498071193695,0.0635281130671501,#
-2.589033842086792,-9.236295700073242,2.957528829574585,-0.003665083553642,-0.0549762547016143,0.0610847249627113,#
-2.5076780319213867,-9.308080673217772,2.8761727809906006,0.0109952501952648,-0.0610847249627113,0.0561979450285434,#
-2.462214469909668,-9.375079154968262,2.967100143432617,0.0012216945178806,-0.0586413368582725,0.0537545569241046,#
-2.462214469909668,-9.375079154968262,2.967100143432617,0.0158820282667875,-0.0476460866630077,0.0488677769899368,#
-2.400001049041748,-9.183652877807615,2.988635540008545,0.0244338884949684,-0.031764056533575,0.0439810007810592,#
-2.522034883499145,-9.1716890335083,3.0484561920166016,0.0109952501952648,-0.0329857505857944,0.0415376126766204,#
-2.445464611053467,-9.078369140625,3.115455150604248,0.0195471122860908,-0.040315918624401,0.0305423624813556,#
-2.557927370071411,-9.262616157531738,2.9934213161468506,0.0525328628718853,-0.0097735561430454,0.0183254163712263,#
-2.557927370071411,-9.262616157531738,2.9934213161468506,0.0452026948332786,-0.0219905003905296,0.0183254163712263,#
-2.445464611053467,-9.238687515258787,3.041277408599853,0.0586413368582725,-0.0171037223190069,-0.0195471122860908,#
-2.541177749633789,-9.327221870422363,3.029313325881958,0.0378725305199623,0.0232121963053941,-0.0048867780715227,#
-2.6081764698028564,-9.119047164916992,3.046063184738159,0.0024433890357613,0.0280989725142717,-0.0097735561430454,#
-2.567498683929444,-9.34875774383545,2.991028308868408,-0.031764056533575,0.0293206684291362,0.0012216945178806,#
-2.567498683929444,-9.34875774383545,2.991028308868408,-0.0366508327424526,0.0232121963053941,0.0097735561430454,#
-2.6608188152313232,-9.162117958068848,3.13938307762146,0.0305423624813556,0.0329857505857944,-0.0012216945178806,#
-2.548356056213379,-9.23390293121338,3.029313325881958,0.0427593067288398,0.0183254163712263,-0.0146603342145681,#
-2.6153552532196045,-9.06879711151123,3.089133977890014,0.0464243926107883,0.0244338884949684,-0.0256555844098329,#
-2.754138946533203,-9.07119083404541,2.9479575157165527,0.0647498071193695,0.0390942245721817,-0.0146603342145681,#
-2.763710021972656,-9.241080284118652,2.9288151264190674,0.0012216945178806,0.040315918624401,-0.0183254163712263,#
-2.763710021972656,-9.241080284118652,2.9288151264190674,-0.0195471122860908,0.0513111688196659,-0.0183254163712263,#
-2.799602746963501,-9.291330337524414,3.0077781677246094,-0.0195471122860908,0.0525328628718853,-0.0085518611595034,#
-2.8426735401153564,-9.207581520080566,3.019742012023926,-0.0158820282667875,0.0415376126766204,0.0048867780715227,#
-2.8283162117004395,-9.17886734008789,2.981456995010376,-0.0171037223190069,0.031764056533575,0.0061084721237421,#
-2.926422357559204,-9.260223388671877,3.0269205570220947,-0.0244338884949684,0.0097735561430454,-0.003665083553642,#
-2.926422357559204,-9.260223388671877,3.0269205570220947,-0.0244338884949684,0.0146603342145681,-0.0012216945178806,#
-2.7661027908325195,-9.28893756866455,2.9551358222961426,0.0048867780715227,-0.003665083553642,-0.0012216945178806,#
-2.878565788269043,-9.17886734008789,2.9288151264190674,0.0061084721237421,-0.0024433890357613,0.0134386392310261,#
-2.8043880462646484,-9.14297580718994,3.081955671310425,0.0061084721237421,0.0012216945178806,0.0268772784620523,#
-2.7948169708251958,-9.09511947631836,3.022134780883789,-0.0195471122860908,-0.0171037223190069,0.031764056533575,#
-2.847458839416504,-9.073582649230955,3.002992391586304,-0.0268772784620523,-0.0158820282667875,0.0293206684291362,#
-2.847458839416504,-9.073582649230955,3.002992391586304,-0.0219905003905296,-0.0158820282667875,0.0305423624813556,#
-2.8522443771362305,-8.94676399230957,2.857030153274536,-0.0329857505857944,-0.0354291386902332,0.0134386392310261,#
-2.888136863708496,-9.147761344909668,2.9383859634399414,-0.0476460866630077,-0.0464243926107883,0.0122169442474842,#
-2.964707374572754,-9.138189315795898,3.0652055740356445,-0.0659715011715889,-0.0537545569241046,0.0158820282667875,#
-3.046063184738159,-9.308080673217772,3.067598581314087,-0.0794101431965828,-0.0781884491443634,0.0146603342145681,#
-3.046063184738159,-9.308080673217772,3.067598581314087,-0.0879620015621185,-0.1026223376393318,0.0232121963053941,#
-3.0652055740356445,-9.437292098999023,2.995814085006714,-0.0549762547016143,-0.128277912735939,0.0464243926107883,#
-3.136990547180176,-9.516255378723145,2.9862425327301025,0.0244338884949684,-0.1429382413625717,0.0720799788832664,#
-3.148954391479492,-9.305686950683594,3.081955671310425,0.0525328628718853,-0.155155211687088,0.0879620015621185,#
-3.077169895172119,-9.176474571228027,3.1657044887542725,0.0500894747674465,-0.1747023165225982,0.1111741960048675,#
-3.077169895172119,-9.176474571228027,3.1657044887542725,0.0280989725142717,-0.1966928243637085,0.1258345395326614,#
-2.9383859634399414,-9.1716890335083,3.041277408599853,0.0244338884949684,-0.1893626451492309,0.1368297785520553,#
-2.9527432918548584,-9.116654396057127,3.0652055740356445,0.0500894747674465,-0.175924003124237,0.1429382413625717,#
-2.9216365814208984,-9.099905014038086,3.002992391586304,0.0586413368582725,-0.1710372269153595,0.1478250324726104,#
-2.8426735401153564,-8.980262756347656,2.943171739578247,0.0574196390807628,-0.1600419729948043,0.1441599577665329,#
-2.861815929412842,-8.898907661437988,3.081955671310425,-0.003665083553642,-0.1392731666564941,0.1404948681592941,#
-2.861815929412842,-8.898907661437988,3.081955671310425,-0.0354291386902332,-0.1343863904476165,0.1392731666564941,#
-2.900100946426392,-8.975478172302246,2.9383859634399414,-0.0733016654849052,-0.1575985848903656,0.1356080919504165,#
-2.8426735401153564,-9.198010444641112,3.012563943862915,-0.069636583328247,-0.1649287492036819,0.1270562261343002,#
-2.854637384414673,-9.162117958068848,3.129812002182007,-0.0183254163712263,-0.1649287492036819,0.1221694499254226,#
-2.857030153274536,-9.004191398620605,3.156132936477661,0.0097735561430454,-0.1893626451492309,0.1123958900570869,#
-2.857030153274536,-9.004191398620605,3.156132936477661,0.0109952501952648,-0.1820324808359146,0.1038440242409706,#
-3.036492109298706,-9.030512809753418,3.098705530166626,-0.0134386392310261,-0.1905843466520309,0.1038440242409706,#
-3.146562099456787,-9.274580955505373,3.0077781677246094,-0.0916270837187767,-0.2260134816169738,0.100178949534893,#
-3.263810157775879,-9.28175926208496,3.187239646911621,-0.0745233595371246,-0.2247917801141739,0.1075091138482093,#
-4.051048755645752,-8.834300994873047,3.089133977890014,-0.0464243926107883,-0.2137965410947799,0.1392731666564941,#
-5.462814331054688,-8.721837997436523,2.517249345779419,-0.1856975704431533,-0.0781884491443634,0.1111741960048675,#
-5.462814331054688,-8.721837997436523,2.517249345779419,-0.261442631483078,-0.1111741960048675,0.0977355539798736,#
-6.259624004364014,-9.489934921264648,1.7347965240478516,-0.3860554695129394,-0.5253286361694336,0.1942494213581085,#
-6.281159400939941,-9.260223388671877,1.392622709274292,-0.42270627617836,-0.8099834322929382,0.3066453039646148,#
-6.790830135345459,-8.965906143188477,0.8231310248374939,-0.4813476204872131,-1.2033690214157104,0.4801259338855743,#
-7.075576305389404,-9.253045082092283,0.5048855543136597,-0.6707102656364441,-1.5503302812576294,0.5583143830299377,#
-7.075576305389404,-9.253045082092283,0.5048855543136597,-0.7220214009284973,-1.885074615478516,0.5827482342720032,#
-6.1256256103515625,-9.150154113769531,0.1603191047906875,-0.7354600429534912,-2.673067569732666,0.7440119385719299,#
-4.697111129760742,-8.853443145751953,1.0097711086273191,-0.7085827589035034,-3.129981279373169,0.7794410586357117,#
-3.8500516414642334,-9.944571495056152,1.6773687601089478,-0.6132906079292297,-3.216721534729004,0.7574505805969238,#
-3.270988702774048,-9.250652313232422,1.919043779373169,-0.3408527672290802,-3.277806282043457,0.7879929542541504,#
-3.270988702774048,-9.250652313232422,1.919043779373169,-0.3603998720645904,-3.35843825340271,0.8796200752258301,#
-2.380858421325684,-7.597211837768555,1.490728497505188,-0.7794410586357117,-3.4207446575164795,0.9138274788856506,#
-1.672582983970642,-9.343972206115724,1.8616160154342647,-1.0494356155395508,-2.918627977371216,0.4471401870250702,#
-0.7537391781806946,-10.55474090576172,2.6608188152313232,-1.1202938556671145,-2.745147466659546,0.2247917801141739,#
-0.028713870793581,-11.050054550170898,3.050848960876465,-0.6413896083831787,-2.4055163860321045,0.2712161839008331,#
-0.0358923412859439,-10.24367332458496,4.218546390533447,-0.8038749694824219,-1.9388291835784912,0.2736595571041107,#
-0.0358923412859439,-10.24367332458496,4.218546390533447,-0.6853706240653992,-1.8239898681640625,0.1905843466520309,#
-0.4283152520656585,-10.363314628601074,3.304487943649292,-0.3994940817356109,-1.9388291835784912,0.1624853760004043,#
1.2825528383255005,-10.37767219543457,2.4574286937713623,-1.0372185707092283,-2.318776130676269,0.2541124522686004,#
2.665604591369629,-11.57168960571289,3.0939197540283203,-1.233911395072937,-2.1367435455322266,0.3396310806274414,#
3.3643085956573486,-11.897113800048828,4.627718925476074,-1.2595670223236084,-1.8740792274475095,0.1918060332536697,#
3.3643085956573486,-11.897113800048828,4.627718925476074,-1.0531005859375,-1.6248536109924316,0.0720799788832664,#
5.1804609298706055,-11.815757751464844,7.3052873611450195,-0.3396310806274414,-1.3890666961669922,-0.1270562261343002,#
8.171488761901855,-12.086146354675291,8.865407943725586,0.6120689511299133,-0.8893935680389404,-0.2125748395919799,#
11.586047172546388,-11.57168960571289,9.633503913879396,1.0579874515533447,-0.6181774139404297,-0.2834331095218658,right
14.775679588317873,-8.786444664001465,12.827921867370604,1.5063492059707642,0.8160918951034546,-0.624285876750946,right
17.02971839904785,-9.265008926391602,14.266008377075195,2.103757858276367,2.56067156791687,-0.9846857786178588,right
17.02971839904785,-9.265008926391602,14.266008377075195,2.1477389335632324,3.3999757766723637,-1.1141853332519531,right
18.443878173828125,-9.257830619812012,12.251251220703123,2.080545663833618,5.170210838317871,-1.3731845617294312,right
19.21915054321289,-9.269794464111328,9.499505043029783,2.035343170166016,6.142679691314697,-1.6211885213851929,right
19.142581939697266,-11.392227172851562,6.017949104309082,2.042673110961914,8.234220504760742,-2.0035789012908936,right
18.285951614379883,-13.737194061279297,2.2085752487182617,1.5552170276641846,10.42227554321289,-2.1257483959198,right
18.285951614379883,-13.737194061279297,2.2085752487182617,1.3157649040222168,11.382527351379396,-2.017017602920532,right
17.663816452026367,-13.201202392578123,0.1124626696109771,0.9089407324790956,12.589561462402344,-1.7482447624206543,right
17.824134826660156,-15.634702682495115,-4.074976921081543,0.833195686340332,12.632320404052734,-1.192373752593994,right
20.0087833404541,-19.444076538085938,-9.485149383544922,1.0262233018875122,12.50526523590088,-0.9248227477073668,right
17.936599731445312,-17.187644958496094,-9.66939640045166,1.4513731002807615,12.422189712524414,-0.9162708520889282,right
17.936599731445312,-17.187644958496094,-9.66939640045166,1.2852225303649902,11.529130935668944,-0.6047387719154358,right
16.369298934936523,-13.038490295410156,-8.38684368133545,0.891836941242218,10.82665729522705,-0.1698155403137207,right
16.69711685180664,-15.55095386505127,-12.29671573638916,0.3200839459896087,9.17248249053955,0.2626643180847168,right
12.021540641784668,-15.352350234985352,-15.816556930541992,0.4092676639556885,8.634936332702637,0.4544703662395477,right
8.709875106811523,-10.380064964294434,-18.642480850219727,0.4801259338855743,7.680793285369873,0.6413896083831787,right
5.460421085357666,-9.650253295898438,-17.247467041015625,0.8002098798751831,6.703437328338623,0.517998456954956,right
5.460421085357666,-9.650253295898438,-17.247467041015625,0.9578084945678712,6.077929973602295,0.4666872918605804,right
4.082155227661133,-10.791629791259766,-17.661422729492188,1.087308049201965,4.674203395843506,0.411711037158966,right
2.033899307250977,-10.076176643371582,-18.297914505004883,0.5534276366233826,3.682187080383301,0.3225273489952087,right
-0.8446664214134216,-8.767301559448242,-16.41954803466797,0.2748812437057495,3.2814714908599854,0.3005368411540985,right
-3.036492109298706,-8.520841598510742,-14.852250099182127,0.463022232055664,2.3798608779907227,0.200357899069786,right
-3.036492109298706,-8.520841598510742,-14.852250099182127,0.833195686340332,1.8985131978988647,0.1966928243637085,right
-3.7256247997283936,-7.609175682067871,-15.089139938354492,1.6395140886306765,1.0433270931243896,0.3139754831790924,right
-4.790431022644043,-6.841079711914063,-15.577275276184082,2.0316779613494877,0.3726168274879455,0.2076880484819412,right
-5.950949668884277,-6.625725746154785,-13.835299491882324,2.017017602920532,0.040315918624401,0.0977355539798736,#
-6.52044153213501,-6.893722057342529,-11.095518112182615,1.6871600151062012,-0.5864133238792419,-0.1258345395326614,#
-6.654439926147461,-7.22153902053833,-9.24825954437256,1.0201148986816406,-1.077534556388855,-0.1637070626020431,#
-6.654439926147461,-7.22153902053833,-9.24825954437256,0.7684457898139954,-1.1520578861236572,-0.1356080919504165,#
-7.192824840545654,-8.685946464538574,-7.704888820648193,0.1490467190742492,-1.241241693496704,0.0158820282667875,#
-6.690331935882568,-9.671788215637209,-7.116254806518555,0.0598630309104919,-1.202147364616394,0.0940704718232154,#
-6.022734642028809,-9.678967475891112,-6.441478729248047,-0.1209477484226226,-1.1606097221374512,0.2333436459302902,#
-5.335994720458984,-8.894121170043945,-5.446063995361328,-0.1649287492036819,-1.2522368431091309,0.3738385140895843,#
-5.335994720458984,-8.894121170043945,-5.446063995361328,-0.1893626451492309,-1.359745979309082,0.4911211729049682,#
-4.883750915527344,-9.439685821533203,-5.120640754699707,-0.342074453830719,-1.6541743278503418,0.5827482342720032,#
-4.115654945373535,-10.24606704711914,-4.945964336395264,-0.4422534108161926,-2.007244110107422,0.5864133238792419,#
-3.235095977783203,-9.923035621643066,-4.862215518951416,-0.494786262512207,-2.178281307220459,0.5766398310661316,#
-2.723031997680664,-10.16231918334961,-4.419543266296387,-0.5094466209411621,-2.47881817817688,0.4825693070888519,#
-2.723031997680664,-10.16231918334961,-4.419543266296387,-0.3946073353290558,-2.7927937507629395,0.388498842716217,#
-2.021935224533081,-10.671989440917969,-3.90987229347229,-0.3359659910202026,-2.965052604675293,0.3481829464435577,#
-1.1198409795761108,-9.949356079101562,-3.1800613403320312,-0.2174616158008575,-3.3376693725585938,0.2944283783435821,#
-0.4354937374591827,-9.06401252746582,-2.6560330390930176,-0.152711808681488,-3.4964895248413086,0.2932066619396209,#
0.2512463629245758,-9.456435203552246,-1.7371891736984253,-0.0733016654849052,-3.883766651153565,0.3066453039646148,#
0.2033899277448654,-10.492527961730955,-1.0887343883514404,-0.0342074446380138,-4.197742462158203,0.2785463333129883,#
0.2033899277448654,-10.492527961730955,-1.0887343883514404,-0.0183254163712263,-4.357784271240234,0.261442631483078,#
0.7082754969596863,-10.72702407836914,-1.856830358505249,-0.3310791850090027,-4.846462249755859,0.2272351831197738,#
1.0695916414260864,-8.549554824829102,-3.230310440063477,0.1490467190742492,-5.190979957580566,0.1136175915598869,#
2.0003998279571533,-8.00399112701416,-0.1818545311689376,0.4312581717967987,-5.24229097366333,0.1661504507064819,#
2.187039852142334,-9.901500701904297,3.3643085956573486,1.1337324380874634,-5.32414436340332,0.3396310806274414,#
2.187039852142334,-9.901500701904297,3.3643085956573486,1.4196090698242188,-5.376677513122559,0.4251496791839599,#
1.7347965240478516,-8.9850492477417,3.493520975112915,1.612636685371399,-5.322922706604004,0.4776825606822967,#
1.868794322013855,-6.747759819030762,0.0382851622998714,1.3292036056518557,-4.878226280212402,0.3042019307613373,#
3.845265865325928,-4.1036906242370605,5.651846885681152,0.6719319820404053,-4.484840393066406,0.261442631483078,#
3.2374887466430664,-5.812166690826416,11.284551620483398,-0.5595360994338989,-3.2301602363586426,0.3726168274879455,#
-0.1100698411464691,-7.494320392608643,9.008977890014648,-1.5283397436141968,-2.758586168289185,0.4434750974178314,#
-0.1100698411464691,-7.494320392608643,9.008977890014648,-1.9095085859298704,-2.4543843269348145,0.4813476204872131,#
-1.2179466485977173,-8.197811126708984,5.082355499267578,-2.660850763320923,-1.6517308950424194,0.4703523814678192,#
-0.9882357716560364,-8.446663856506348,6.896114826202393,-3.1165428161621094,-0.7317950129508972,0.445918470621109,#
-1.801795244216919,-9.827322006225586,10.102496147155762,-3.1397547721862797,-0.4642439186573028,0.3628432750701904,#
-3.3020951747894287,-11.693723678588867,8.894121170043945,-2.736595630645752,-0.624285876750946,0.1331647038459777,#
-3.3020951747894287,-11.693723678588867,8.894121170043945,-2.415289878845215,-0.8258654475212097,0.1600419729948043,#
-3.4097721576690674,-11.49272632598877,6.16391134262085,-1.8276549577713013,-0.9028322100639344,0.3579564988613128,#
-3.314059257507324,-10.088139533996582,4.862215518951416,-1.281557559967041,-0.6988092660903931,0.3921639025211334,#
-3.1968109607696533,-10.317852020263672,4.587040901184082,-1.09219491481781,-0.6572716236114502,0.3689517080783844,#
-2.7326035499572754,-10.91127109527588,4.060619831085205,-0.8710681796073914,-0.7989881634712219,0.200357899069786,#
-2.7326035499572754,-10.91127109527588,4.060619831085205,-0.5913001298904419,-1.0030112266540527,0.0085518611595034,#
-2.517249345779419,-10.695917129516602,2.801995038986206,-0.5900784730911255,-1.1141853332519531,0.0146603342145681,#
-2.4598214626312256,-10.121639251708984,1.7635102272033691,-0.7708892226219177,-1.2620103359222412,0.100178949534893,#
-2.2157537937164307,-10.40877914428711,1.5672988891601562,-0.9223793148994446,-1.3438639640808103,0.1099525094032287,#
-1.9118653535842896,-10.411171913146973,1.146162033081055,-1.0567656755447388,-1.5185662508010864,0.1270562261343002,#
-1.919043779373169,-9.949356079101562,0.5335994362831116,-0.9810206294059752,-1.7018204927444458,0.0513111688196659,#
-1.919043779373169,-9.949356079101562,0.5335994362831116,-0.910162389278412,-1.754353165626526,0.0097735561430454,#
-1.8855443000793457,-9.339186668395996,0.5718846321105957,-0.7660024166107178,-1.9021782875061035,-0.0488677769899368,#
-1.672582983970642,-8.97787094116211,0.2895315289497375,-0.6181774139404297,-1.9437159299850464,-0.0867403075098991,#
-1.1724830865859983,-8.563912391662598,1.0336993932724,-0.5913001298904419,-1.8826313018798828,-0.1062874197959899,#
-1.1700903177261353,-8.38684368133545,1.3663017749786377,-0.5473191142082214,-1.6798299551010132,-0.1637070626020431,#
-1.1700903177261353,-8.38684368133545,1.3663017749786377,-0.6487197875976562,-1.572320818901062,-0.1869192570447921,#
-0.9451649785041808,-8.635696411132812,3.022134780883789,-0.7916580438613892,-1.369519591331482,-0.2724378705024719,#
-1.0552347898483276,-9.951749801635742,2.9216365814208984,-0.6413896083831787,-1.1202938556671145,-0.2944283783435821,#
-1.057627558708191,-11.30130100250244,2.414358139038086,-0.5106682777404785,-0.9272661209106444,-0.2223483920097351,#
-1.1892328262329102,-10.995020866394045,2.289931058883667,-0.5680879354476929,-0.5448757410049438,-0.0500894747674465,#
-1.2634103298187256,-10.961520195007324,2.770888566970825,-0.7562289237976074,-0.1172826737165451,0.0818535313010215,#
-1.2634103298187256,-10.961520195007324,2.770888566970825,-0.9761338829994202,0.0354291386902332,0.0965138673782348,#
-1.4093725681304932,-11.10030460357666,2.651247262954712,-1.244906663894653,0.2382304221391677,0.0952921733260154,#
-1.4069796800613403,-11.528619766235352,2.0410776138305664,-1.2216944694519043,0.2919849753379822,0.1356080919504165,#
-1.2227323055267334,-11.34676456451416,2.1200408935546875,-1.0482138395309448,0.2809897363185882,0.1429382413625717,#
-1.246660590171814,-10.856236457824709,1.581655740737915,-0.6303943395614624,0.2296785563230514,0.1050657257437706,#
-1.246660590171814,-10.856236457824709,1.581655740737915,-0.4031591713428497,0.1918060332536697,0.0659715011715889,#
-1.497907042503357,-10.657631874084473,0.8805587291717529,-0.0061084721237421,0.1368297785520553,-0.0671931952238082,#
-1.6055840253829956,-10.15035343170166,0.2895315289497375,0.310310423374176,0.0549762547016143,-0.1942494213581085,#
-1.56251323223114,-9.705288887023926,0.3206382095813751,0.3921639025211334,0.0561979450285434,-0.2064663618803024,#
-1.8448662757873533,-9.353544235229492,0.2105683833360672,0.3054236173629761,0.1026223376393318,-0.2394521236419677,#
-1.8448662757873533,-9.353544235229492,0.2105683833360672,0.100178949534893,0.0904053896665573,-0.2480039745569229,#
-1.959721684455872,-9.351150512695312,0.2656033039093017,0.0171037223190069,0.069636583328247,-0.2174616158008575,#
-1.9573287963867188,-9.523433685302734,-0.3469592928886413,-0.129499614238739,0.003665083553642,-0.1734806150197982,#
-1.9621145725250244,-9.221939086914062,-0.0981057211756706,-0.21135313808918,0.007330167107284,-0.1612636744976043,#
-2.0099709033966064,-9.327221870422363,-0.0837487876415252,-0.1600419729948043,0.0354291386902332,-0.1539334952831268,#
-1.9812570810317995,-9.351150512695312,-0.3493521213531494,-0.2028012871742248,-0.007330167107284,-0.1356080919504165,#
-1.9812570810317995,-9.351150512695312,-0.3493521213531494,-0.2309002727270126,-0.0012216945178806,-0.1466033309698104,#
-2.0003998279571533,-9.442078590393066,-0.4450649619102478,-0.1466033309698104,0.0733016654849052,-0.1734806150197982,#
-2.048256158828736,-9.595218658447266,-0.2201396822929382,-0.1185043603181839,0.1148392781615257,-0.1795890927314758,#
-2.163111686706543,-9.868000030517578,0.0789631456136703,-0.0561979450285434,0.1221694499254226,-0.1930277347564697,#
-2.117647886276245,-10.140782356262209,0.2081755697727203,0.0781884491443634,0.0916270837187767,-0.1490467190742492,#
-2.117647886276245,-10.140782356262209,0.2081755697727203,0.1185043603181839,0.0427593067288398,-0.129499614238739,#
-2.230110645294189,-10.303494453430176,-0.028713870793581,0.1856975704431533,-0.0415376126766204,-0.0623064190149307,#
-2.2612173557281494,-10.26760196685791,-0.2201396822929382,0.2663294076919555,-0.0598630309104919,0.0122169442474842,#
-2.44067907333374,-10.492527961730955,-0.1435693651437759,0.2993151545524597,-0.0452026948332786,0.0745233595371246,#
-2.47896409034729,-10.353742599487305,-0.1196411252021789,0.2492256760597229,-0.0354291386902332,0.1099525094032287,#
-2.3880369663238525,-10.186245918273926,-0.1316052377223968,0.1123958900570869,-0.0561979450285434,0.0427593067288398,#
-2.3880369663238525,-10.186245918273926,-0.1316052377223968,0.0293206684291362,-0.0513111688196659,0.0390942245721817,#
-2.3306093215942383,-10.05703353881836,-0.1962114423513412,-0.1197260618209838,-0.040315918624401,0.0598630309104919,#
-2.3856441974639893,-10.061819076538086,0.064606212079525,-0.1869192570447921,-0.0635281130671501,0.0818535313010215,#
-2.4741785526275635,-10.090532302856444,0.6197410225868225,-0.2382304221391677,-0.1221694499254226,0.0977355539798736,#
-2.4957141876220703,-10.05703353881836,0.8973084688186646,-0.1881409436464309,-0.2406738102436065,0.129499614238739,#
-2.4957141876220703,-10.05703353881836,0.8973084688186646,-0.1172826737165451,-0.2980934381484985,0.1478250324726104,#
-2.63449764251709,-9.968499183654783,0.8590233325958252,0.0207688063383102,-0.4324798583984375,0.1856975704431533,#
-2.553141593933105,-9.827322006225586,0.9308080077171326,0.0085518611595034,-0.5790832042694092,0.1575985848903656,#
-2.3545374870300293,-10.037891387939451,1.550549030303955,0.0122169442474842,-0.6230642199516296,0.1148392781615257,#
-2.0817556381225586,-10.181459426879885,1.6175479888916016,0.129499614238739,-0.6621583700180054,0.0586413368582725,#
-2.0817556381225586,-10.181459426879885,1.6175479888916016,0.3982723951339721,-0.5888567566871643,0.031764056533575,#
-1.8783657550811768,-10.15035343170166,1.2514461278915403,0.494786262512207,-0.5167768001556396,0.0293206684291362,#
-1.7467604875564575,-9.997212409973145,0.935593605041504,0.4776825606822967,-0.3359659910202026,0.0329857505857944,#
-1.6821542978286743,-9.798608779907228,1.1700903177261353,0.4153760969638824,-0.2370087206363678,0.0195471122860908,#
-1.5864413976669312,-10.095318794250488,1.2729815244674685,0.2076880484819412,-0.0561979450285434,-0.0085518611595034,#
-1.497907042503357,-10.482955932617188,1.4859429597854614,0.0574196390807628,0.0513111688196659,0.0219905003905296,#
-1.497907042503357,-10.482955932617188,1.4859429597854614,0.0842969194054603,0.0928487852215766,0.0366508327424526,#
-1.2299107313156128,-10.628917694091797,2.2133607864379883,0.2528907656669616,0.0647498071193695,0.0464243926107883,#
-0.3876372575759887,-11.014162063598633,3.895515203475952,0.5070031881332397,0.0855186134576797,0.0171037223190069,#
0.318245381116867,-11.578868865966797,4.479363918304443,0.6352811455726624,0.1539334952831268,0.0171037223190069,#
1.2083754539489746,-11.49272632598877,5.199604034423828,0.833195686340332,0.393385648727417,0.1453816443681717,#
1.2083754539489746,-11.49272632598877,5.199604034423828,0.905275583267212,0.5558710098266602,0.2577775418758392,#
2.426322221755981,-12.014362335205078,6.807580471038818,0.95658677816391,1.022558331489563,0.4031591713428497,#
3.500699520111084,-12.997812271118164,8.530412673950195,1.1496145725250244,1.7274760007858276,0.4275930821895599,#
4.039084434509277,-13.545768737792969,8.74337387084961,1.4318259954452517,2.104979515075684,0.5033381581306458,#
4.012763977050781,-12.64606761932373,6.597012042999268,2.100092887878418,2.9149630069732666,0.726908266544342,#
3.3403804302215576,-10.234102249145508,5.187639236450195,2.167285919189453,3.946073293685913,0.5607577562332153,#
3.3403804302215576,-10.234102249145508,5.187639236450195,1.987696886062622,4.54226016998291,0.3249707520008087,#
2.359323024749756,-9.87278652191162,4.929214477539063,1.4269392490386963,5.5183939933776855,0.0745233595371246,#
1.6247265338897705,-11.045268058776855,3.6299118995666495,1.2510151863098145,5.842143058776856,0.1123958900570869,#
0.7992027401924133,-11.772686958312988,1.0743772983551023,1.5283397436141968,6.470094203948975,0.2907632887363434,#
-0.1627119481563568,-10.978270530700684,-2.392822742462158,1.7567967176437378,7.045512199401856,0.2858764827251434,#
-0.1627119481563568,-10.978270530700684,-2.392822742462158,1.6529526710510254,7.25686502456665,0.1673721522092819,#
-1.442872166633606,-9.425328254699709,-2.8354949951171875,1.2937743663787842,7.938570976257324,0.0439810007810592,#
-2.179861307144165,-6.1256256103515625,-1.521835207939148,1.7360278367996216,7.539076805114746,0.5033381581306458,#
-2.3066811561584477,-7.317252159118652,-4.204189300537109,2.808675765991211,7.038181781768799,0.929709494113922,#
-1.2227323055267334,-12.167502403259276,-7.125825881958008,3.963176965713501,6.209873199462891,1.369519591331482,#
-1.2227323055267334,-12.167502403259276,-7.125825881958008,3.355994701385498,6.008293628692627,1.0262233018875122,#
-0.8446664214134216,-9.841679573059082,-5.891129493713379,2.7952370643615723,5.963090896606445,0.3286358118057251,#
-2.6775684356689453,-5.446063995361328,-4.326223373413086,2.901524305343628,5.285050392150879,0.2956500649452209,#
-3.115455150604248,-5.752345561981201,-5.7547383308410645,3.0273590087890625,4.824471473693848,0.3713951408863067,#
-2.935993194580078,-8.609375953674316,-9.434900283813477,2.519134044647217,4.417647361755371,0.0916270837187767,#
-3.1657044887542725,-8.544770240783691,-12.76331615447998,0.4508052766323089,4.053582191467285,-0.2541124522686004,#
-3.1657044887542725,-8.544770240783691,-12.76331615447998,-0.6780403852462769,3.847115993499756,-0.3677300214767456,#
-2.0171494483947754,-10.13599681854248,-14.991034507751465,-3.055458068847656,3.286358118057251,-0.448361873626709,#
-2.062613010406494,-8.922836303710938,-16.859827041625977,-3.9851672649383545,1.9632630348205569,-0.3494046330451965,#
-2.878565788269043,-10.872984886169434,-18.936798095703125,-3.870327949523926,1.147171139717102,-0.4935645759105682,#
-1.5457634925842283,-10.901700019836426,-18.965511322021484,-2.742703914642334,-0.546097457408905,-0.63283771276474,#
-1.5457634925842283,-10.901700019836426,-18.965511322021484,-1.8569756746292116,-1.336533784866333,-0.7244647741317749,#
1.4380863904953003,-10.61695384979248,-19.48714637756348,-1.3524158000946045,-2.725600242614746,-0.726908266544342,left
3.81655216217041,-12.043076515197754,-18.836299896240234,-2.3297715187072754,-4.058469295501709,-0.6621583700180054,left
4.043870449066162,-12.820744514465332,-17.699708938598633,-2.878312110900879,-4.679090023040772,-0.624285876750946,left
5.326423168182373,-13.500306129455566,-15.888341903686523,-3.03468918800354,-5.781058311462402,-0.7342383861541748,left
8.183453559875488,-15.42174243927002,-14.39761447906494,-2.0793240070343018,-7.04062557220459,-0.7806627750396729,left
8.183453559875488,-15.42174243927002,-14.39761447906494,-1.7958909273147583,-7.789524078369141,-0.6963658928871155,left
11.767902374267578,-17.087146759033203,-11.665009498596191,-2.3309929370880127,-9.56586742401123,-0.3506263196468353,left
14.880964279174805,-16.689937591552734,-8.049454689025879,-2.886864185333252,-10.574987411499023,-0.2040229737758636,left
16.924434661865234,-17.680566787719727,-8.221738815307617,-3.150750160217285,-12.497934341430664,-0.1930277347564697,left
18.82672691345215,-19.1665096282959,-8.154739379882812,-2.453162431716919,-13.97740650177002,-0.1111741960048675,left
18.82672691345215,-19.1665096282959,-8.154739379882812,-2.3395450115203857,-14.368349075317385,0.007330167107284,left
21.011375427246094,-18.570695877075195,-1.5481561422348022,-3.089665412902832,-14.569928169250488,0.31641885638237,left
19.45843315124512,-15.14896011352539,1.9621145725250244,-2.7940151691436768,-14.483187675476074,0.2907632887363434,left
19.463218688964844,-20.772092819213867,-1.765903115272522,-1.1386191844940186,-13.981071472167969,0.2101314514875412,left
21.91586303710937,-16.66840171813965,3.7328033447265625,0.9639169573783876,-11.5120267868042,1.8838529586791992,left
21.91586303710937,-16.66840171813965,3.7328033447265625,1.0262233018875122,-7.953231334686279,1.1752701997756958,left
22.58585357666016,-4.694717884063721,17.199609756469727,0.9626952409744264,-6.429778099060059,0.5632011890411377,left
15.031710624694824,-0.6340980529785156,18.486948013305664,-0.0354291386902332,-4.868452548980713,0.411711037158966,left
11.511869430541992,-2.383251428604126,13.938192367553713,-0.6108472347259521,-4.389548301696777,0.5717529654502869,left
10.542776107788086,-4.835894107818604,11.294123649597168,-1.72991943359375,-3.2350471019744877,0.499673068523407,left
9.468399047851562,-7.858029365539551,10.925628662109377,-1.81177282333374,-1.6871600151062012,0.1698155403137207,left
9.468399047851562,-7.858029365539551,10.925628662109377,-1.4721418619155884,-1.0396620035171509,-0.040315918624401,left
7.917850017547607,-8.647661209106445,10.403992652893066,-0.4813476204872131,-0.0708582773804664,-0.4410317242145538,left
6.477370738983154,-7.568498134613037,8.592625617980957,0.1441599577665329,0.4886777997016907,-0.5057815313339233,left
5.852844715118408,-7.171289443969727,6.0466628074646,0.2528907656669616,0.7159129977226257,-0.4801259338855743,#
5.3694939613342285,-7.518248558044434,4.060619831085205,-0.0256555844098329,1.2192511558532717,-0.4569137394428253,#
5.3694939613342285,-7.518248558044434,4.060619831085205,-0.2418954968452453,1.5149011611938477,-0.4801259338855743,#
4.204189300537109,-7.690531730651855,3.230310440063477,-0.3775035738945007,2.0524466037750244,-0.6316159963607788,#
2.7876384258270264,-7.724031925201416,2.9048867225646973,-0.3200839459896087,2.311445951461792,-0.7611156702041626,#
1.765903115272522,-7.855636119842529,2.431107759475708,-0.3371876776218414,2.32854962348938,-0.8209787011146545,#
0.8877372145652771,-7.41535758972168,2.1535403728485107,-0.5522059202194214,2.305337429046631,-0.9578084945678712,#
-0.1651047617197036,-8.195417404174805,1.0289137363433838,-0.3298574984073639,2.2466959953308105,-1.1508362293243408,#
-0.1651047617197036,-8.195417404174805,1.0289137363433838,-0.200357899069786,2.104979515075684,-1.2155860662460327,#
0.0717846825718879,-9.57607650756836,1.2227323055267334,-0.7354600429534912,1.6224102973937988,-1.1703832149505615,#
1.2059825658798218,-8.456235885620117,1.8448662757873533,-1.1227372884750366,1.3646327257156372,-1.1251806020736694,#
1.1270195245742798,-8.664410591125488,1.5433706045150757,-1.5857594013214111,1.4196090698242188,-1.1740483045578003,#
0.638883650302887,-9.4061861038208,1.129412293434143,-2.019460916519165,1.6321837902069092,-1.2827792167663574,#
0.638883650302887,-9.4061861038208,1.129412293434143,-2.250361204147339,1.5796509981155396,-1.2387982606887815,#
1.4811571836471558,-10.547561645507812,1.1581261157989502,-2.522799253463745,1.5197879076004028,-1.0518789291381836,#
1.832902193069458,-11.94497013092041,1.294516921043396,-2.265021562576294,1.886296272277832,-1.0042328834533691,#
0.8542376756668091,-12.023933410644531,1.6055840253829956,-2.163620948791504,2.1330785751342773,-1.0433270931243896,#
0.8542376756668091,-12.94756317138672,0.9834501147270204,-1.6883817911148071,2.415289878845215,-1.1496145725250244,#
0.8542376756668091,-12.94756317138672,0.9834501147270204,-1.4477078914642334,2.403073072433472,-1.1569446325302124,#
0.1220339611172676,-13.940585136413574,0.4594219326972961,-1.100746750831604,2.3529837131500244,-0.9871291518211364,#
0.4115655124187469,-13.543376922607422,0.6699903011322021,-0.8588511943817139,2.625421524047852,-0.9480348825454712,#
-0.0239282250404357,-12.940383911132812,0.397208571434021,-0.8099834322929382,2.8050105571746826,-0.9724688529968262,#
-0.8255237936973572,-12.117253303527832,-0.4929214715957641,-1.016449809074402,3.0762267112731934,-0.9248227477073668,#
-1.1413763761520386,-11.540583610534668,-1.442872166633606,-1.61874520778656,3.203282833099365,-0.6731536388397217,#
-1.1413763761520386,-11.540583610534668,-1.442872166633606,-1.9730366468429563,3.225273370742798,-0.5167768001556396,#
-1.411765456199646,-11.72722339630127,-0.9140582084655762,-2.5032520294189453,3.3596599102020264,-0.1942494213581085,#
-2.1511476039886475,-12.330215454101562,-1.6199408769607544,-2.537459373474121,3.445178270339966,0.1649287492036819,#
-3.1585259437561035,-12.918848991394045,-1.9621145725250244,-2.389634370803833,3.419523000717163,0.2651077210903168,#
-3.553341627120972,-13.194024085998535,-2.313859462738037,-1.738471269607544,3.0798919200897217,0.2956500649452209,#
-3.553341627120972,-13.194024085998535,-2.313859462738037,-1.408613681793213,2.863651990890503,0.3237490355968475,#
-3.69930362701416,-12.05504035949707,-2.3497519493103027,-0.7256865501403809,2.5325727462768555,0.4007157981395721,#
-4.378865718841553,-11.480762481689451,-2.888136863708496,-0.2162399291992187,2.150182247161865,0.4129327237606048,#
-4.72582483291626,-11.899507522583008,-1.8448662757873533,-0.0635281130671501,1.8972915410995483,0.4727957546710968,#
-3.5676987171173096,-11.33958625793457,-1.373480200767517,0.1172826737165451,1.09219491481781,0.6780403852462769,#
-3.5676987171173096,-11.33958625793457,-1.373480200767517,0.0842969194054603,0.5399889945983887,0.8344173431396484,#
-2.895315170288086,-10.045069694519045,-2.03629207611084,-0.0293206684291362,0.4190412163734436,0.9089407324790956,#
-2.9048867225646973,-9.265008926391602,-2.981456995010376,-0.2675510942935943,0.1905843466520309,0.9773555994033812,#
-2.720639228820801,-8.898907661437988,-2.667997360229492,-0.2895416021347046,0.0733016654849052,0.9822423458099364,#
-2.304288148880005,-8.975478172302246,-1.526620864868164,-0.1563768982887268,-0.1710372269153595,0.9162708520889282,#
-1.6821542978286743,-8.886943817138672,-0.6173481941223145,0.0867403075098991,-0.3640649616718292,0.8148701786994934,#
-1.6821542978286743,-8.886943817138672,-0.6173481941223145,0.1698155403137207,-0.4349232316017151,0.7782194018363953,#
-1.179661512374878,-7.980063438415527,-0.7537391781806946,0.2492256760597229,-0.4850127100944519,0.6682668924331665,#
-0.9260223507881165,-7.992027282714844,-0.9260223507881165,0.1478250324726104,-0.333522617816925,0.5192201733589172,#
-0.6221339106559753,-8.834300994873047,-0.5455635190010071,0.0745233595371246,-0.2345653474330902,0.4251496791839599,#
-0.5431707501411438,-9.257830619812012,0.2584248483181,0.1563768982887268,-0.0806318372488021,0.2516690790653229,#
-0.5431707501411438,-9.257830619812012,0.2584248483181,0.2883199155330658,-0.0195471122860908,0.1869192570447921,#
-0.5000999569892883,-9.097511291503906,0.2727817595005035,0.2736595571041107,-0.0427593067288398,0.1918060332536697,#
-0.0622133873403072,-9.432506561279297,0.3254238963127136,0.1160609796643257,-0.0280989725142717,0.1881409436464309,#
0.4354937374591827,-10.643275260925291,0.5886343717575073,0.0659715011715889,0.0366508327424526,0.1685938388109207,#
0.5120640397071838,-11.44965648651123,0.6747759580612183,-0.0171037223190069,0.2296785563230514,0.1148392781615257,#
0.114855483174324,-11.801401138305664,1.246660590171814,0.1918060332536697,0.4544703662395477,0.1172826737165451,#
0.114855483174324,-11.801401138305664,1.246660590171814,0.3775035738945007,0.5839699506759644,0.2040229737758636,#
0.1579262912273407,-11.966506004333496,3.146562099456787,0.577861487865448,0.818535327911377,0.333522617816925,#
0.2847459018230438,-12.078968048095703,3.553341627120972,0.6963658928871155,1.0237799882888794,0.3200839459896087,#
0.4043869972229004,-11.717653274536133,3.369094133377075,0.6902573704719543,1.1508362293243408,0.342074453830719,#
0.2991028428077698,-11.562118530273438,3.775874137878418,0.6865922808647156,1.5772075653076172,0.2907632887363434,#
0.2991028428077698,-11.562118530273438,3.775874137878418,0.7745543122291565,1.808107852935791,0.2455605864524841,#
0.4809573292732239,-11.98564910888672,4.7712883949279785,1.1838220357894895,2.1623992919921875,0.3261924386024475,#
0.3373879790306091,-12.272788047790527,4.555934429168701,1.5882028341293335,2.482483386993408,0.4898994863033294,#
0.2895315289497375,-11.583653450012209,3.9840497970581055,1.6321837902069092,2.664515733718872,0.5766398310661316,#
0.4163511395454407,-11.3300142288208,3.91705060005188,1.3145432472229004,3.0969953536987305,0.726908266544342,#
0.2321037948131561,-12.318251609802246,3.376272678375244,0.9407047629356384,3.5917818546295166,0.8258654475212097,#
0.2321037948131561,-12.318251609802246,3.376272678375244,0.8686248064041138,3.84589433670044,0.9248227477073668,#
-0.2632104754447937,-12.282358169555664,2.900100946426392,1.1264023780822754,4.268600463867188,1.0421053171157837,#
-0.6101697683334351,-12.01914882659912,1.7467604875564575,1.2864443063735962,4.4103169441223145,1.1178505420684814,#
-0.4426721632480621,-11.554940223693848,0.4785645008087158,1.3511940240859983,4.664429664611816,1.3805147409439087,#
-0.4522434771060943,-10.753345489501951,-0.3613162040710449,1.37684965133667,4.9832916259765625,1.5136795043945312,#
-0.4522434771060943,-10.753345489501951,-0.3613162040710449,1.4159438610076904,5.13722562789917,1.5613255500793457,#
-0.94037926197052,-9.401400566101074,-0.6891329884529114,1.627297043800354,5.256951332092285,1.6089717149734497,#
