accX,accY,accZ,gyrX,gyrY,gyrZ,annotation
9.42772102355957,-2.567498683929444,1.2251251935958862,0.0219905003905296,-0.0207688063383102,-0.0207688063383102,#
9.377471923828123,-2.5938196182250977,1.3351951837539673,0.0134386392310261,-0.0158820282667875,-0.0256555844098329,#
9.399007797241213,-2.63449764251709,1.3304094076156616,0.007330167107284,-0.0097735561430454,-0.0244338884949684,#
9.291330337524414,-2.622533798217773,1.34476637840271,0.0097735561430454,-0.007330167107284,-0.0232121963053941,#
9.291330337524414,-2.622533798217773,1.34476637840271,0.0085518611595034,-0.0097735561430454,-0.0171037223190069,#
9.339186668395996,-2.612962245941162,1.306481122970581,0.0097735561430454,-0.0122169442474842,-0.0146603342145681,#
9.394222259521484,-2.636890411376953,1.306481122970581,0.0134386392310261,-0.0122169442474842,-0.0146603342145681,#
9.432506561279297,-2.567498683929444,1.3136597871780396,0.0195471122860908,-0.0085518611595034,-0.0158820282667875,#
9.422935485839844,-2.629711866378784,1.3112668991088867,0.0134386392310261,-0.0061084721237421,-0.0134386392310261,#
9.4061861038208,-2.565105676651001,1.284945726394653,0.007330167107284,-0.003665083553642,-0.0109952501952648,#
9.4061861038208,-2.565105676651001,1.284945726394653,0.003665083553642,-0.0024433890357613,-0.007330167107284,#
9.439685821533203,-2.555534601211548,1.244267821311951,0.003665083553642,-0.0024433890357613,-0.0048867780715227,#
9.375079154968262,-2.562713146209717,1.2610174417495728,0.003665083553642,0.0012216945178806,-0.0048867780715227,#
9.315258979797363,-2.5076780319213867,1.244267821311951,0.0097735561430454,0.0012216945178806,-0.0061084721237421,#
9.442078590393066,-2.486142873764038,1.284945726394653,0.0122169442474842,-0.0012216945178806,-0.0048867780715227,#
9.396614074707031,-2.4957141876220703,1.3232309818267822,0.0097735561430454,-0.0012216945178806,-0.0109952501952648,#
9.396614074707031,-2.4957141876220703,1.3232309818267822,0.003665083553642,-0.003665083553642,-0.0146603342145681,#
9.401400566101074,-2.589033842086792,1.2227323055267334,0.003665083553642,-0.003665083553642,-0.0171037223190069,#
9.351150512695312,-2.550748825073242,1.2825528383255005,0.0024433890357613,-0.0048867780715227,-0.0195471122860908,#
9.353544235229492,-2.51007080078125,1.1988041400909424,0.003665083553642,-0.0048867780715227,-0.0195471122860908,#
9.324830055236816,-2.51007080078125,1.2083754539489746,0.0024433890357613,-0.003665083553642,-0.0183254163712263,#
9.324830055236816,-2.51007080078125,1.2083754539489746,-0.003665083553642,-0.0024433890357613,-0.0183254163712263,#
9.329615592956545,-2.445464611053467,1.1868400573730469,-0.0097735561430454,-0.003665083553642,-0.0207688063383102,#
9.449256896972656,-2.522034883499145,1.155733346939087,-0.0097735561430454,-0.0061084721237421,-0.0244338884949684,#
9.30329418182373,-2.5746772289276123,1.275374412536621,-0.0024433890357613,-0.0109952501952648,-0.0280989725142717,#
9.379864692687988,-2.502892255783081,1.2538390159606934,0.0012216945178806,-0.0134386392310261,-0.0280989725142717,#
9.45164966583252,-2.4646072387695312,1.22033953666687,0.0061084721237421,-0.0195471122860908,-0.0293206684291362,#
9.45164966583252,-2.4646072387695312,1.22033953666687,-0.0012216945178806,-0.0219905003905296,-0.0256555844098329,#
9.35832977294922,-2.550748825073242,1.2873386144638062,-0.0024433890357613,-0.0171037223190069,-0.0268772784620523,#
9.353544235229492,-2.589033842086792,1.2873386144638062,-0.003665083553642,-0.0097735561430454,-0.0293206684291362,#
9.322437286376951,-2.579463005065918,1.2825528383255005,0.0024433890357613,-0.0097735561430454,-0.0342074446380138,#
9.391828536987305,-2.560320377349853,1.3184452056884766,0.0109952501952648,-0.0122169442474842,-0.0342074446380138,#
9.425328254699709,-2.577069997787476,1.356730580329895,0.0207688063383102,-0.0097735561430454,-0.0305423624813556,#
9.425328254699709,-2.577069997787476,1.356730580329895,0.0134386392310261,-0.0061084721237421,-0.0232121963053941,#
9.339186668395996,-2.5938196182250977,1.3495519161224363,0.0061084721237421,-0.0048867780715227,-0.0183254163712263,#
9.377471923828123,-2.589033842086792,1.3232309818267822,-0.0061084721237421,0.003665083553642,-0.0122169442474842,#
9.437292098999023,-2.579463005065918,1.2873386144638062,-0.0024433890357613,0.0109952501952648,-0.0061084721237421,#
9.4061861038208,-2.562713146209717,1.2562319040298462,-0.0024433890357613,0.0122169442474842,-0.0048867780715227,#
9.4061861038208,-2.562713146209717,1.2562319040298462,-0.0048867780715227,0.0085518611595034,-0.0024433890357613,#
9.298508644104004,-2.550748825073242,1.2993026971817017,-0.0048867780715227,0.007330167107284,-0.0024433890357613,#
9.32004451751709,-2.5746772289276123,1.2825528383255005,0.0061084721237421,0.0048867780715227,0.0061084721237421,#
9.351150512695312,-2.6009981632232666,1.2681961059570312,0.003665083553642,0.0024433890357613,0.007330167107284,#
9.391828536987305,-2.5746772289276123,1.2993026971817017,0.0048867780715227,0.0048867780715227,0.007330167107284,#
9.367900848388672,-2.5124638080596924,1.246660590171814,0.0122169442474842,0.007330167107284,0.007330167107284,#
9.367900848388672,-2.5124638080596924,1.246660590171814,0.0012216945178806,0.0061084721237421,0.0085518611595034,#
9.375079154968262,-2.627319574356079,1.1748759746551514,-0.0061084721237421,0.003665083553642,0.0097735561430454,#
9.365508079528809,-2.6081764698028564,1.239482045173645,0.0012216945178806,-0.0012216945178806,0.0085518611595034,#
9.4061861038208,-2.524427890777588,1.2514461278915403,0.0207688063383102,-0.0048867780715227,0.0109952501952648,#
9.33440113067627,-2.550748825073242,1.2969098091125488,0.0232121963053941,-0.007330167107284,0.0109952501952648,#
9.33440113067627,-2.550748825073242,1.2969098091125488,0.0158820282667875,-0.0109952501952648,0.0134386392310261,#
9.391828536987305,-2.493321180343628,1.284945726394653,0.0085518611595034,-0.0097735561430454,0.0146603342145681,#
9.38943576812744,-2.447857618331909,1.2658032178878784,0.003665083553642,-0.0061084721237421,0.0146603342145681,#
9.276973724365234,-2.4646072387695312,1.2059825658798218,-0.0097735561430454,-0.0061084721237421,0.0146603342145681,#
9.35832977294922,-2.548356056213379,1.2227323055267334,-0.0146603342145681,-0.0061084721237421,0.0109952501952648,#
9.394222259521484,-2.426322221755981,1.2323036193847656,-0.0109952501952648,-0.003665083553642,0.007330167107284,#
9.394222259521484,-2.426322221755981,1.2323036193847656,0.007330167107284,-0.0097735561430454,0.0012216945178806,#
9.293723106384276,-2.452643394470215,1.184447169303894,0.0097735561430454,-0.0122169442474842,0.0012216945178806,#
9.415757179260254,-2.447857618331909,1.2514461278915403,-0.0048867780715227,-0.0183254163712263,-0.003665083553642,#
9.360722541809082,-2.4885356426239014,1.2705888748168943,-0.0134386392310261,-0.0146603342145681,-0.0048867780715227,#
9.35832977294922,-2.522034883499145,1.184447169303894,-0.0134386392310261,-0.0122169442474842,-0.0061084721237421,#
9.360722541809082,-2.4957141876220703,1.239482045173645,-0.0097735561430454,-0.0097735561430454,-0.0085518611595034,#
9.360722541809082,-2.4957141876220703,1.239482045173645,-0.0171037223190069,-0.0183254163712263,-0.0097735561430454,#
9.336793899536133,-2.5363922119140625,1.234696388244629,-0.0219905003905296,-0.0195471122860908,-0.0085518611595034,#
9.322437286376951,-2.555534601211548,1.2227323055267334,-0.0244338884949684,-0.0232121963053941,-0.0097735561430454,#
9.44447135925293,-2.577069997787476,1.2299107313156128,-0.0134386392310261,-0.0256555844098329,-0.0122169442474842,#
9.45164966583252,-2.5196423530578613,1.2323036193847656,-0.0134386392310261,-0.0268772784620523,-0.0122169442474842,#
9.45164966583252,-2.5196423530578613,1.2323036193847656,-0.0232121963053941,-0.0256555844098329,-0.0097735561430454,#
9.475577354431152,-2.617748022079468,1.2801601886749268,-0.0280989725142717,-0.0244338884949684,-0.0085518611595034,#
9.401400566101074,-2.622533798217773,1.2825528383255005,-0.0366508327424526,-0.0183254163712263,-0.0085518611595034,#
9.415757179260254,-2.553141593933105,1.3232309818267822,-0.0354291386902332,-0.0183254163712263,0.0061084721237421,#
9.4061861038208,-2.5363922119140625,1.277767300605774,-0.0354291386902332,-0.0195471122860908,0.0109952501952648,#
9.34157943725586,-2.4981069564819336,1.2705888748168943,-0.0354291386902332,-0.0244338884949684,0.0122169442474842,#
9.34157943725586,-2.4981069564819336,1.2705888748168943,-0.0256555844098329,-0.0268772784620523,0.007330167107284,#
9.322437286376951,-2.47896409034729,1.3136597871780396,-0.0183254163712263,-0.0256555844098329,0.0048867780715227,#
9.396614074707031,-2.4670000076293945,1.3710873126983645,-0.0024433890357613,-0.0219905003905296,-0.003665083553642,#
9.461220741271973,-2.562713146209717,1.2705888748168943,-0.0097735561430454,-0.0219905003905296,-0.0109952501952648,#
9.535398483276367,-2.612962245941162,1.3399806022644043,-0.0134386392310261,-0.0207688063383102,-0.0158820282667875,#
9.492327690124512,-2.644068956375122,1.3016955852508545,-0.0183254163712263,-0.0183254163712263,-0.0158820282667875,#
9.492327690124512,-2.644068956375122,1.3016955852508545,-0.0085518611595034,-0.0085518611595034,-0.0097735561430454,#
9.439685821533203,-2.522034883499145,1.306481122970581,-0.003665083553642,-0.003665083553642,-0.0048867780715227,#
9.45164966583252,-2.627319574356079,1.2179466485977173,-0.0158820282667875,0.0024433890357613,-0.0048867780715227,#
9.418149948120115,-2.562713146209717,1.3040882349014282,-0.0219905003905296,-0.0012216945178806,0.0085518611595034,#
9.365508079528809,-2.517249345779419,1.1988041400909424,-0.0146603342145681,0.0012216945178806,0.0085518611595034,#
9.365508079528809,-2.517249345779419,1.1988041400909424,0.0109952501952648,-0.0012216945178806,0.0048867780715227,#
9.442078590393066,-2.4741785526275635,1.2299107313156128,0.0109952501952648,-0.0012216945178806,0.003665083553642,#
9.44447135925293,-2.543570280075073,1.2059825658798218,-0.0097735561430454,0.0024433890357613,-0.0012216945178806,#
9.492327690124512,-2.6249265670776367,1.2490534782409668,-0.0219905003905296,0.0061084721237421,-0.0061084721237421,#
9.410971641540527,-2.4957141876220703,1.191625714302063,-0.0171037223190069,0.0048867780715227,-0.0097735561430454,#
9.468399047851562,-2.5292134284973145,1.196411371231079,-0.0012216945178806,-0.0024433890357613,-0.0134386392310261,#
9.468399047851562,-2.5292134284973145,1.196411371231079,0.007330167107284,-0.0097735561430454,-0.0122169442474842,#
9.408578872680664,-2.610569477081299,1.227518081665039,0.0085518611595034,-0.0097735561430454,-0.0085518611595034,#
9.343972206115724,-2.543570280075073,1.2083754539489746,0.0097735561430454,-0.007330167107284,-0.003665083553642,#
9.367900848388672,-2.531606435775757,1.1581261157989502,0.003665083553642,-0.0048867780715227,-0.0012216945178806,#
9.34875774383545,-2.526820659637451,1.2681961059570312,-0.0012216945178806,-0.0024433890357613,-0.0012216945178806,#
9.34875774383545,-2.526820659637451,1.2681961059570312,-0.0146603342145681,-0.0012216945178806,-0.0024433890357613,#
9.360722541809082,-2.526820659637451,1.1748759746551514,-0.0158820282667875,-0.0012216945178806,-0.007330167107284,#
9.422935485839844,-2.557927370071411,1.191625714302063,-0.0097735561430454,-0.0012216945178806,-0.0085518611595034,#
9.410971641540527,-2.4981069564819336,1.1653046607971191,0.0012216945178806,-0.0024433890357613,-0.0109952501952648,#
9.470791816711426,-2.502892255783081,1.191625714302063,-0.0109952501952648,-0.003665083553642,-0.0085518611595034,#
9.430113792419434,-2.6057839393615723,1.1868400573730469,-0.0207688063383102,-0.0061084721237421,-0.0061084721237421,#
9.430113792419434,-2.6057839393615723,1.1868400573730469,-0.0232121963053941,-0.007330167107284,-0.0061084721237421,#
9.4061861038208,-2.5076780319213867,1.131805181503296,-0.0122169442474842,-0.0085518611595034,-0.0048867780715227,#
9.449256896972656,-2.44067907333374,1.210768222808838,0.003665083553642,-0.0097735561430454,-0.0061084721237421,#
9.360722541809082,-2.455036163330078,1.1365907192230225,-0.0024433890357613,-0.0146603342145681,-0.0061084721237421,#
9.422935485839844,-2.4430718421936035,1.1676974296569824,-0.0097735561430454,-0.0146603342145681,-0.0048867780715227,#
9.422935485839844,-2.44067907333374,1.1365907192230225,-0.0256555844098329,-0.0109952501952648,-0.0012216945178806,#
9.422935485839844,-2.44067907333374,1.1365907192230225,-0.0329857505857944,-0.0061084721237421,-0.0012216945178806,#
9.38943576812744,-2.392822742462158,1.0911270380020142,-0.0390942245721817,-0.007330167107284,-0.0012216945178806,#
9.4061861038208,-2.44067907333374,1.038485050201416,-0.0439810007810592,-0.0085518611595034,-0.0012216945178806,#
9.339186668395996,-2.5004994869232178,1.0217353105545044,-0.0610847249627113,-0.0134386392310261,0.0048867780715227,#
9.260223388671877,-2.5004994869232178,1.0241280794143677,-0.0659715011715889,-0.0171037223190069,0.0061084721237421,#
9.260223388671877,-2.5004994869232178,1.0241280794143677,-0.069636583328247,-0.0232121963053941,0.0097735561430454,#
9.33440113067627,-2.469392776489258,0.9954141974449158,-0.0757450610399246,-0.0280989725142717,0.0109952501952648,#
9.370293617248535,-2.421536445617676,1.0480562448501587,-0.0720799788832664,-0.0305423624813556,0.0122169442474842,#
9.456435203552246,-2.455036163330078,1.1748759746551514,-0.0928487852215766,-0.0280989725142717,0.0109952501952648,#
9.4660062789917,-2.3784656524658203,1.1485549211502075,-0.1026223376393318,-0.0232121963053941,0.003665083553642,#
9.53779125213623,-2.4502503871917725,1.3543376922607422,-0.1368297785520553,-0.0183254163712263,0.0012216945178806,#
9.53779125213623,-2.4502503871917725,1.3543376922607422,-0.2382304221391677,0.0061084721237421,0.0207688063383102,#
9.580862045288086,-2.6632115840911865,1.7012970447540283,-0.3029802441596985,0.0207688063383102,0.0354291386902332,#
9.832108497619627,-2.5052852630615234,1.9932212829589844,-0.4337015450000763,0.0671931952238082,0.0745233595371246,#
9.978070259094238,-2.801995038986206,2.3473589420318604,-0.624285876750946,0.1502684205770492,0.130721315741539,#
10.11924648284912,-3.6251261234283447,2.414358139038086,-0.7452336549758911,0.199136197566986,0.1661504507064819,#
10.13599681854248,-3.8835511207580566,2.486142873764038,-0.8625163435935974,0.3261924386024475,0.235787034034729,#
10.13599681854248,-3.8835511207580566,2.486142873764038,-0.864959716796875,0.4508052766323089,0.3603998720645904,#
10.193424224853516,-4.089334011077881,2.945564746856689,-0.893058717250824,0.4837909936904907,0.4202629029750824,#
10.183852195739746,-3.981656789779663,3.5820553302764893,-0.9443698525428772,0.5399889945983887,0.5705313086509705,#
10.518847465515137,-3.5581274032592773,4.543970108032227,-0.9907942414283752,0.6022953391075134,0.7207997441291809,#
10.387242317199709,-3.670589685440064,4.503292083740234,-1.0702043771743774,0.684148907661438,0.790436327457428,#
10.387242317199709,-3.670589685440064,4.503292083740234,-1.268118977546692,0.7989881634712219,0.911384105682373,#
10.746166229248049,-4.223331928253174,6.039484024047852,-1.3878449201583862,0.9003888368606567,0.9602518677711488,#
10.810771942138672,-5.266602516174316,6.104090690612793,-1.612636685371399,1.266897201538086,1.054322361946106,#
11.33240795135498,-6.977471351623535,7.142575740814209,-1.766570210456848,1.4916889667510986,1.2705622911453247,#
11.533404350280762,-7.379465103149414,9.001798629760742,-1.7971125841140747,1.665169596672058,1.3548591136932373,#
11.526226997375488,-7.695317268371582,8.693124771118164,-1.8019993305206297,1.8704142570495603,1.5601038932800293,#
11.526226997375488,-7.695317268371582,8.693124771118164,-1.6114150285720823,2.0145742893218994,1.810551166534424,#
11.205588340759276,-8.427520751953125,8.327022552490234,-1.4794719219207764,2.1477389335632324,1.9498244524002075,#
10.916057586669922,-9.078369140625,9.035298347473145,-1.288887619972229,2.603430986404419,2.1538474559783936,#
11.404192924499512,-9.276973724365234,9.035298347473145,-1.142284274101257,3.0444626808166504,2.307780742645264,#
11.334800720214844,-10.64806079864502,8.207381248474121,-1.137397527694702,3.231381893157959,2.3847475051879883,#
11.334800720214844,-10.64806079864502,8.207381248474121,-1.1667182445526123,3.597890138626098,2.5643367767333984,#
11.018948554992676,-10.84427261352539,7.214360237121582,-1.0848647356033323,3.7677059173583984,2.858765125274658,#
10.368099212646484,-10.344171524047852,8.214560508728027,-1.0506572723388672,3.878880023956299,2.963830947875977,#
8.973085403442383,-10.387242317199709,7.956134796142578,-0.8295305371284485,4.156204700469971,3.1397547721862797,#
8.721837997436523,-9.949356079101562,7.039684295654297,-0.6169556975364685,4.206294059753418,3.243598937988281,#
9.03290557861328,-10.12881851196289,6.759723663330078,-0.463022232055664,4.3028082847595215,3.352329730987549,#
9.03290557861328,-10.12881851196289,6.759723663330078,-0.554649293422699,4.382217884063721,3.332782745361328,#
8.200202941894531,-9.269794464111328,5.079962730407715,-0.6303943395614624,4.413982391357422,3.3486645221710205,#
7.568498134613037,-8.398807525634766,4.766502857208252,-0.6719319820404053,4.466515064239502,3.3804285526275635,#
6.752545356750488,-7.676175117492676,4.922036170959473,-0.7220214009284973,4.625335216522217,3.4097492694854736,#
5.381458282470703,-7.278966426849365,3.6945178508758554,-0.7660024166107178,4.701080799102783,3.397532224655152,#
4.862215518951416,-6.029913425445557,0.9643075466156006,-0.6291726231575012,4.672981262207031,3.2704761028289795,#
4.862215518951416,-6.029913425445557,0.9643075466156006,-0.5363238453865051,4.528821468353272,3.089665412902832,#
3.974478244781494,-5.237888813018799,0.3445664942264557,-0.6071821451187134,4.499500751495361,2.963830947875977,#
2.857030153274536,-5.532205581665039,0.0981057211756706,-0.9187142252922058,4.428642272949219,2.7927937507629395,#
1.3328022956848145,-5.101497650146484,0.5264209508895874,-1.1312891244888306,4.230728149414063,2.5899922847747803,#
0.7728817462921143,-4.7952165603637695,-1.0839486122131348,-1.1606097221374512,3.9448513984680176,2.514247179031372,#
0.7728817462921143,-4.7952165603637695,-1.0839486122131348,-0.9382613897323608,3.1495285034179688,2.3615353107452397,#
0.0047856452874839,-4.177868366241455,-2.4574286937713623,-0.7843278050422668,2.813562393188477,2.273573398590088,#
-1.129412293434143,-3.6562328338623047,-3.421736478805542,-0.5033381581306458,2.3884127140045166,2.0646636486053467,#
-2.0817556381225586,-3.3643085956573486,-4.065405368804932,-0.4300364553928375,2.1367435455322266,1.8007776737213137,#
-2.4095723628997803,-3.3930225372314453,-4.256831645965576,-0.4776825606822967,2.010909080505371,1.6712781190872192,#
-3.211168050765991,-3.562912940979004,-4.658825397491455,-0.7036960124969482,1.7506881952285769,1.374406337738037,#
-3.211168050765991,-3.562912940979004,-4.658825397491455,-0.8661814332008362,1.4171655178070068,1.099524974822998,left
-3.9912283420562735,-3.840480089187622,-5.450850009918213,-0.8686248064041138,1.1813786029815674,1.0005677938461304,left
-4.828716278076172,-3.845265865325928,-5.948556900024414,-0.7366817593574524,0.8441908955574036,0.7953230738639832,left
-4.553541660308838,-3.926621913909912,-6.740581512451172,-0.5961868762969971,0.5949652194976807,0.6230642199516296,left
-4.694717884063721,-4.223331928253174,-6.747759819030762,-0.6022953391075134,0.4886777997016907,0.5399889945983887,left
-4.7952165603637695,-5.053641319274902,-6.824329853057861,-0.726908266544342,0.2712161839008331,0.3347443044185638,left
-4.7952165603637695,-5.053641319274902,-6.824329853057861,-0.9810206294059752,0.0427593067288398,0.1209477484226226,left
-5.56331205368042,-5.714060306549072,-6.618547439575195,-1.1361758708953855,-0.0659715011715889,0.0439810007810592,left
-6.123232841491699,-6.489335060119629,-7.097111701965332,-1.3707412481307983,-0.3469612300395965,-0.0586413368582725,left
-5.804987907409668,-7.118647575378418,-7.068397998809815,-1.5601038932800293,-0.6084038615226746,-0.1930277347564697,left
-5.37188720703125,-8.073383331298828,-7.042076587677002,-1.673721432685852,-0.7244647741317749,-0.2638860046863556,left
-5.37188720703125,-8.073383331298828,-7.042076587677002,-1.9473810195922847,-0.896723747253418,-0.3860554695129394,left
-4.90528678894043,-9.60478973388672,-7.17368221282959,-2.115974903106689,-0.9309312105178832,-0.4471401870250702,left
-4.034298896789551,-10.796415328979492,-7.185646057128906,-2.4727096557617188,-1.1300673484802246,-0.5326588153839111,left
-4.366901397705078,-11.75115203857422,-7.549355506896973,-2.9296233654022217,-1.4159438610076904,-0.6157339811325073,left
-4.862215518951416,-12.696316719055176,-8.819944381713867,-3.12631630897522,-1.4684767723083496,-0.5705313086509705,left
-2.857030153274536,-13.258630752563477,-9.528220176696776,-3.3743200302124023,-1.6627261638641355,-0.7427902817726135,left
-2.857030153274536,-13.258630752563477,-9.528220176696776,-3.5197017192840576,-2.113531351089477,-0.522885262966156,left
-1.550549030303955,-13.57209014892578,-8.731410026550293,-3.630875825881958,-2.224705696105957,-0.4850127100944519,left
-2.146361827850342,-14.000405311584473,-8.008777618408203,-3.6895172595977774,-2.493478298187256,-0.6377245187759399,left
-1.5337992906570437,-13.60080337524414,-8.286344528198242,-3.595446825027466,-2.965052604675293,-0.6719319820404053,left
-0.2632104754447937,-14.024333000183104,-8.142775535583496,-3.5221450328826904,-3.271697998046875,-0.6560499668121338,left
-0.2632104754447937,-14.024333000183104,-8.142775535583496,-3.3608815670013428,-3.9130876064300537,-0.6169556975364685,left
0.9547362923622132,-13.87358570098877,-9.078369140625,-3.236268758773804,-4.610674858093262,-0.5729747414588928,left
3.129812002182007,-14.62493133544922,-8.973085403442383,-3.231381893157959,-5.01016902923584,-0.5522059202194214,left
5.888736724853516,-16.97468376159668,-7.262216091156006,-3.070118188858032,-6.196434497833252,-0.6108472347259521,left
8.169095993041992,-16.81436538696289,-3.6323046684265137,-2.734152317047119,-6.8634796142578125,-0.601073682308197,left
9.07119083404541,-16.02712631225586,0.6340980529785156,-1.979145050048828,-8.350281715393066,-0.3775035738945007,left
9.07119083404541,-16.02712631225586,0.6340980529785156,-1.2302463054656982,-9.786994934082031,0.0574196390807628,left
10.061819076538086,-15.407384872436523,-0.0550349205732345,-0.8222004175186157,-10.352639198303224,0.2724378705024719,left
12.961919784545898,-17.094324111938477,11.318050384521484,-0.1466033309698104,-11.084433555603027,0.6865922808647156,left
12.440284729003906,-17.58724594116211,18.11127471923828,0.8173136115074158,-11.634196281433104,1.200925588607788,left
12.753745079040527,-10.918450355529783,8.73619556427002,1.659061074256897,-11.986044883728027,1.1080769300460815,left
14.517254829406738,4.000799655914307,10.667202949523926,3.7823660373687744,-10.766793251037598,1.4623682498931885,left
14.517254829406738,4.000799655914307,10.667202949523926,3.465947151184082,-6.7132110595703125,2.3334364891052246,left
9.875179290771484,6.7692952156066895,14.419148445129396,2.9577224254608154,-4.632665634155273,2.400629758834839,left
6.771688461303711,-2.03629207611084,19.582860946655277,-0.3689517080783844,-1.9754799604415891,2.66207218170166,left
6.841079711914063,-7.372286796569824,19.86521339416504,-1.715259075164795,-1.5087926387786863,1.847202181816101,left
6.056234359741211,-5.43170690536499,14.89292812347412,-1.1276240348815918,-1.8093295097351076,1.48802387714386,left
6.056234359741211,-5.43170690536499,14.89292812347412,0.4923428893089294,-1.871635913848877,1.0946382284164429,left
3.797409296035767,-0.7369893789291382,11.873186111450195,1.0494356155395508,-1.573542594909668,0.9871291518211364,left
2.4023938179016118,-0.3756731450557709,10.77727222442627,0.989572525024414,-0.7159129977226257,0.9920158982276917,#
0.9044869542121888,-2.280359983444214,10.076176643371582,-0.0232121963053941,0.1563768982887268,0.8991671204566956,#
-0.1770688742399215,-3.259024381637573,8.83669376373291,-0.3970507085323334,0.4495835602283478,0.7977665066719055,#
-1.5385849475860596,-3.7016968727111816,8.365307807922363,-0.4104893505573272,0.7110261917114258,0.6084038615226746,#
-1.5385849475860596,-3.7016968727111816,8.365307807922363,-0.1795890927314758,0.7696675062179565,0.2724378705024719,#
-2.4646072387695312,-3.960121393203736,7.2813591957092285,0.0574196390807628,0.7562289237976074,0.1392731666564941,#
-2.2372891902923584,-3.3308091163635254,6.417550563812256,0.4324798583984375,0.4679089784622192,-0.1514901220798492,#
-1.947757601737976,-2.9623143672943115,6.15673303604126,0.5167768001556396,0.1270562261343002,-0.3616215586662292,#
-1.6223337650299072,-3.218346357345581,6.08494758605957,0.5803048610687256,0.0061084721237421,-0.4508052766323089,#
-1.06480610370636,-3.1657044887542725,6.582655429840088,0.6584933400154114,-0.1600419729948043,-0.5436540246009827,#
-1.06480610370636,-3.1657044887542725,6.582655429840088,0.5851916074752808,-0.4679089784622192,-0.6511631608009338,#
-1.7754744291305542,-3.431307554244995,7.025327682495117,0.6377245187759399,-0.5864133238792419,-0.7024743556976318,#
-3.31166672706604,-3.1800613403320312,6.522834300994873,0.7623373866081238,-0.652384877204895,-0.7513421177864075,#
-3.3236305713653564,-3.053241729736328,5.9700927734375,0.5864133238792419,-0.7965447902679443,-0.7513421177864075,#
-1.0360921621322632,-3.259024381637573,5.733203411102295,0.4520269632339477,-0.9969027042388916,-0.7440119385719299,#
-1.0360921621322632,-3.259024381637573,5.733203411102295,0.1478250324726104,-1.3634110689163208,-0.7757760286331177,#
1.3375877141952517,-3.2542388439178467,6.486942291259766,-0.0574196390807628,-1.4159438610076904,-0.8808417320251465,#
1.284945726394653,-3.1728827953338623,7.032505512237549,-0.3457395434379577,-1.248571753501892,-0.9529216885566713,#
-0.4043869972229004,-2.699103832244873,8.171488761901855,-0.3310791850090027,-1.1178505420684814,-0.966360330581665,#
-0.7537391781806946,-2.7421746253967285,8.216952323913574,-0.3640649616718292,-1.1459494829177856,-0.9443698525428772,#
0.1531406491994857,-3.5126638412475586,7.470392227172852,-0.517998456954956,-1.1838220357894895,-1.1105202436447144,#
0.1531406491994857,-3.5126638412475586,7.470392227172852,-0.5693095922470093,-1.321873426437378,-1.1716049909591677,#
2.2133607864379883,-5.333601474761963,8.73619556427002,-0.5705313086509705,-1.257123589515686,-1.1984822750091553,#
3.28773832321167,-6.38165807723999,9.858428955078123,-0.5094466209411621,-0.9187142252922058,-1.2998830080032349,#
2.816352128982544,-5.714060306549072,9.399007797241213,-0.31641885638237,-0.5998519659042358,-1.3145432472229004,#
2.2229323387146,-4.086941242218018,8.939584732055664,-0.2773246467113495,-0.5131116509437561,-1.27544903755188,#
2.2229323387146,-4.086941242218018,8.939584732055664,-0.5094466209411621,-0.4141544103622436,-1.2290246486663818,#
1.2801601886749268,-3.8500516414642334,8.999405860900879,-0.910162389278412,-0.2724378705024719,-1.189930438995361,#
0.9906285405158995,-4.991428375244141,8.049454689025879,-0.939483106136322,-0.1844758540391922,-1.2326897382736206,#
1.7467604875564575,-5.132604122161865,7.534998416900635,-1.0103412866592407,-0.2137965410947799,-1.3988401889801023,#
2.172683000564575,-5.187639236450195,7.563712120056152,-1.035996913909912,-0.2394521236419677,-1.4599249362945557,#
1.9453648328781128,-5.6685967445373535,7.226324081420898,-1.045770525932312,-0.235787034034729,-1.5515520572662354,#
1.9453648328781128,-5.6685967445373535,7.226324081420898,-1.0201148986816406,-0.1893626451492309,-1.5674339532852173,#
2.148754596710205,-6.226124286651611,7.247859954833984,-1.0518789291381836,-0.1637070626020431,-1.594311237335205,#
1.8975083827972408,-6.69990348815918,7.77188777923584,-1.1532796621322632,-0.1429382413625717,-1.5845377445220947,#
1.9621145725250244,-6.903293132781982,7.719245910644531,-1.2778924703598022,-0.1661504507064819,-1.5405566692352295,#
2.364108800888061,-6.63051176071167,7.118647575378418,-1.2559019327163696,-0.1795890927314758,-1.5185662508010864,#
2.940778970718384,-6.1399827003479,6.589833736419678,-1.1850436925888062,-0.178367406129837,-1.5356699228286743,#
2.940778970718384,-6.1399827003479,6.589833736419678,-1.1508362293243408,-0.1856975704431533,-1.6211885213851929,#
3.31884503364563,-6.927221298217773,6.254837989807129,-1.1398409605026243,-0.1624853760004043,-1.6578394174575806,#
3.617947816848755,-6.888936519622803,5.996413230895996,-0.9834640026092528,-0.1038440242409706,-1.7177023887634275,#
3.778266668319702,-6.228517532348633,5.233102798461914,-0.9822423458099364,-0.0952921733260154,-1.81177282333374,#
4.1347975730896,-5.723631858825684,4.520041942596436,-1.007897973060608,-0.1050657257437706,-1.8508671522140503,#
4.1347975730896,-5.723631858825684,4.520041942596436,-1.211920976638794,-0.1258345395326614,-1.8826313018798828,#
4.149154186248779,-5.084747791290283,3.838087558746338,-1.3756279945373535,-0.1368297785520553,-1.894848108291626,#
4.170689582824707,-4.823930263519287,3.5054850578308105,-1.6932685375213623,-0.1417165547609329,-1.955932855606079,#
4.742574691772461,-5.458028793334961,3.589233875274658,-1.7323628664016724,-0.1478250324726104,-2.062220335006714,#
5.632704257965088,-5.986842632293701,3.5365920066833496,-1.7445796728134155,-0.1747023165225982,-2.1343002319335938,#
6.6352972984313965,-6.388835906982422,3.3547375202178955,-1.7580183744430542,-0.2785463333129883,-2.345653295516968,#
6.6352972984313965,-6.388835906982422,3.3547375202178955,-1.7372496128082275,-0.3530696928501129,-2.5032520294189453,#
7.111469268798828,-6.08494758605957,3.13220477104187,-1.7812305688858032,-0.3628432750701904,-2.5386812686920166,#
6.752545356750488,-5.154139995574951,2.785245418548584,-1.980366826057434,-0.3078669905662536,-2.544789552688598,#
7.362715244293213,-5.364708423614502,2.4957141876220703,-2.307780742645264,-0.2480039745569229,-2.55089807510376,#
8.039883613586426,-5.644669055938721,2.287538528442383,-2.428728580474853,-0.2076880484819412,-2.594879150390625,#
9.073582649230955,-5.986842632293701,2.328216552734375,-2.6547420024871826,-0.1453816443681717,-2.71094012260437,#
9.073582649230955,-5.986842632293701,2.328216552734375,-2.649855375289917,-0.1258345395326614,-2.910076379776001,#
9.848857879638672,-6.357729434967041,2.3186452388763428,-2.56067156791687,-0.1246128380298614,-3.0444626808166504,#
10.52841854095459,-6.472585201263428,2.2085752487182617,-2.5435678958892822,-0.2345653474330902,-3.199617862701416,#
11.397013664245604,-7.264609336853027,2.392822742462158,-2.3529837131500244,-0.3494046330451965,-3.2704761028289795,#
11.760723114013672,-7.269395351409912,2.5052852630615234,-2.28579044342041,-0.4214845895767212,-3.2594807147979736,#
11.760723114013672,-7.269395351409912,2.5052852630615234,-2.1343002319335938,-0.5619794726371765,-3.169075489044189,#
12.244073867797852,-7.384250640869141,2.517249345779419,-1.9815884828567505,-0.6218425035476685,-3.111655712127685,#
12.440284729003906,-7.168896198272705,2.400001049041748,-1.6761648654937744,-0.7513421177864075,-2.9235148429870605,#
12.110074996948242,-6.556333541870117,2.3258235454559326,-1.349972367286682,-0.8612945675849915,-2.7036099433898926,#
12.095718383789062,-6.149554252624512,2.249253273010254,-1.200925588607788,-0.910162389278412,-2.586327314376831,#
11.84447193145752,-6.068198204040527,2.2372891902923584,-0.7207997441291809,-0.9553651213645936,-2.20760178565979,#
11.84447193145752,-6.068198204040527,2.2372891902923584,-0.5986303091049194,-0.9370396137237548,-2.1196398735046387,#
11.34676456451416,-5.536991596221924,1.969292998313904,-0.3872771561145782,-0.8478559851646423,-1.9730366468429563,#
11.203195571899414,-5.091926097869873,1.6534404754638672,-0.2883199155330658,-0.6878139972686768,-1.8325417041778564,#
11.076375007629396,-4.704289436340332,1.1365907192230225,-0.2858764827251434,-0.5998519659042358,-1.7555750608444214,#
10.791629791259766,-4.139583110809326,1.0528419017791748,-0.4691306948661804,-0.3970507085323334,-1.5759859085083008,#
10.791629791259766,-4.139583110809326,1.0528419017791748,-0.6890356540679932,-0.2455605864524841,-1.3414205312728882,#
10.370492935180664,-4.266402721405029,1.0289137363433838,-0.8050966858863831,-0.1881409436464309,-1.2229161262512207,#
10.114461898803713,-4.285545349121094,1.1868400573730469,-1.0091196298599243,-0.1246128380298614,-0.9920158982276917,#
10.04985523223877,-4.161118507385254,1.1772687435150146,-1.0848647356033323,-0.1148392781615257,-0.8747332096099854,#
9.970890998840332,-3.9529430866241455,0.861416220664978,-1.1911520957946775,-0.0916270837187767,-0.6621583700180054,#
9.841679573059082,-3.7950167655944815,0.5623133182525635,-1.280335783958435,-0.0195471122860908,-0.4960079491138458,#
9.841679573059082,-3.7950167655944815,0.5623133182525635,-1.327981948852539,0.0158820282667875,-0.42270627617836,#
9.628718376159668,-3.7016968727111816,0.6867401003837585,-1.4513731002807615,0.0684148892760276,-0.2761029601097107,#
9.477970123291016,-3.373879909515381,0.6747759580612183,-1.627297043800354,0.069636583328247,-0.128277912735939,#
9.327221870422363,-3.462414264678955,0.705882728099823,-1.659061074256897,0.0684148892760276,-0.0610847249627113,#
9.272188186645508,-3.5054850578308105,0.8781659603118896,-1.640735745429993,0.0623064190149307,0.0598630309104919,#
9.540184020996094,-3.452842950820923,0.787238597869873,-1.5283397436141968,0.0659715011715889,0.1331647038459777,#
9.540184020996094,-3.452842950820923,0.787238597869873,-1.4684767723083496,0.0720799788832664,0.1588202863931656,#
9.722038269042969,-3.153740167617798,0.787238597869873,-1.4220523834228516,0.0769667476415634,0.2333436459302902,#
9.511469841003418,-2.9551358222961426,0.6867401003837585,-1.3621894121170044,0.0916270837187767,0.3115321099758148,#
9.29611587524414,-3.034099102020264,0.8159525394439697,-1.3292036056518557,0.0965138673782348,0.3591781854629516,#
9.607183456420898,-3.074777126312256,0.8303093910217285,-1.2717839479446411,0.0867403075098991,0.4214845895767212,#
9.607183456420898,-3.074777126312256,0.8303093910217285,-1.2620103359222412,0.0867403075098991,0.4581354260444641,#
10.00439167022705,-2.7038896083831787,1.246660590171814,-1.220472812652588,0.0329857505857944,0.5143333673477173,#
10.01874828338623,-2.4717857837677,1.0791629552841189,-1.1606097221374512,-0.0280989725142717,0.5961868762969971,#
9.640682220458984,-2.273181438446045,0.8997013568878174,-1.1276240348815918,-0.0342074446380138,0.6193991303443909,#
9.3128662109375,-1.9908283948898315,0.662811815738678,-1.0848647356033323,-0.0109952501952648,0.624285876750946,#
9.190832138061523,-1.8472589254379272,0.729810893535614,-1.0592091083526611,0.0219905003905296,0.5815265774726868,#
9.190832138061523,-1.8472589254379272,0.729810893535614,-1.0017894506454468,0.007330167107284,0.5375455617904663,#
9.4061861038208,-2.0793628692626958,1.2035897970199585,-0.7574505805969238,-0.0525328628718853,0.4679089784622192,#
9.413363456726074,-2.124826431274414,1.1868400573730469,-0.4642439186573028,-0.1343863904476165,0.3848337531089782,#
9.18126106262207,-1.6462620496749878,0.9810572862625122,-0.4043808877468109,-0.1673721522092819,0.3591781854629516,#
9.415757179260254,-1.801795244216919,0.7513462901115417,-0.3542913794517517,-0.200357899069786,0.2516690790653229,#
9.585646629333496,-2.1272192001342773,0.8709874749183655,-0.2797680497169494,-0.1893626451492309,0.1820324808359146,#
9.585646629333496,-2.1272192001342773,0.8709874749183655,-0.2028012871742248,-0.1771456897258758,0.1637070626020431,#
9.631111145019531,-2.2612173557281494,1.239482045173645,-0.0171037223190069,-0.152711808681488,0.1453816443681717,#
9.695716857910156,-2.0865414142608643,1.215553879737854,0.0623064190149307,-0.1331647038459777,0.1429382413625717,#
9.497113227844238,-1.9238293170928955,1.1270195245742798,0.0256555844098329,-0.1014006435871124,0.1331647038459777,#
9.62393283843994,-2.00518536567688,1.584048628807068,-0.1563768982887268,-0.0354291386902332,0.1172826737165451,#
9.62393283843994,-2.00518536567688,1.584048628807068,-0.2492256760597229,0.0146603342145681,0.1221694499254226,#
10.030712127685549,-2.304288148880005,2.541177749633789,-0.4642439186573028,0.1343863904476165,0.2028012871742248,#
10.02592658996582,-2.5746772289276123,2.7732813358306885,-0.7024743556976318,0.3396310806274414,0.3677300214767456,#
10.315458297729492,-3.206382274627685,2.8187451362609863,-0.8832851052284241,0.4666872918605804,0.4385882914066314,#
10.736595153808594,-4.177868366241455,3.3475589752197266,-1.3377554416656494,0.7623373866081238,0.5570926666259766,#
10.97587776184082,-5.422136306762695,4.689932346343994,-1.6688346862792969,0.926044464111328,0.6755970120429993,#
10.97587776184082,-5.422136306762695,4.689932346343994,-1.7030421495437622,0.9785772562026978,0.8063183426856995,#
11.679367065429688,-7.178467750549316,4.998606204986572,-1.610193371772766,1.0506572723388672,1.0909732580184937,#
11.758330345153809,-8.243274688720703,5.414957523345947,-1.4489295482635498,1.2131426334381104,1.4208307266235352,#
11.617154121398926,-8.130810737609863,6.448657035827637,-1.336533784866333,1.2974395751953125,1.5845377445220947,#
12.162715911865234,-8.784051895141602,7.200003147125244,-0.9028322100639344,1.494132399559021,1.931498885154724,#
12.162715911865234,-8.784051895141602,7.200003147125244,-0.6633800864219666,1.7787871360778809,2.235701084136963,#
12.973884582519531,-9.805787086486816,7.29810905456543,-0.6658235192298889,2.017017602920532,2.378638982772827,#
13.00259780883789,-10.001997947692873,7.396214485168457,-0.6719319820404053,2.45927095413208,2.65229868888855,#
13.153346061706545,-10.356135368347168,7.027719974517822,-0.7146912813186646,2.5912139415740967,2.7903501987457275,#
13.588839530944824,-11.43529987335205,7.511070251464844,-0.8075400590896606,2.8563218116760254,3.0908870697021484,#
14.036296844482422,-12.01675510406494,7.728816509246826,-0.5900784730911255,3.118986129760742,3.371876716613769,#
14.036296844482422,-12.01675510406494,7.728816509246826,-0.3628432750701904,3.214278221130371,3.569791078567505,#
13.950156211853027,-11.765508651733398,7.121039390563965,-0.152711808681488,3.4060842990875244,3.883766651153565,#
14.222938537597656,-11.454442024230955,5.565705299377441,-0.1392731666564941,3.8251254558563232,4.100006580352783,#
13.17248821258545,-11.89472198486328,6.096912384033203,-0.129499614238739,4.081681251525879,4.207515716552734,#
12.79920768737793,-12.272788047790527,7.130610942840576,-0.0134386392310261,4.361449241638184,4.324798583984375,#
12.531211853027344,-11.24626636505127,7.034898281097412,0.1600419729948043,4.220954418182373,4.459184646606445,#
12.531211853027344,-11.24626636505127,7.034898281097412,0.310310423374176,4.134214401245117,4.526378154754639,#
11.172088623046877,-9.300901412963867,4.986642360687256,0.5326588153839111,3.941186428070069,4.586241245269775,#
8.94676399230957,-7.721638679504394,3.9218363761901855,0.3799469769001007,4.019374847412109,4.57158088684082,#
7.116254806518555,-6.845865249633789,3.6634113788604736,0.3677300214767456,4.07801628112793,4.461628437042236,#
5.97727108001709,-5.840879917144775,2.878565788269043,0.2724378705024719,4.121997356414795,4.244166851043701,#
5.97727108001709,-5.840879917144775,2.878565788269043,0.1905843466520309,4.119554042816162,4.073129653930664,#
4.5583271980285645,-5.230710506439209,1.0959126949310305,-0.0158820282667875,3.979058980941773,3.873993158340454,#
3.713660717010498,-4.833501815795898,0.7274181246757507,-0.1356080919504165,3.7652626037597656,3.5942251682281494,#
3.103491306304932,-4.031906127929688,0.916451096534729,-0.1466033309698104,3.612550735473633,3.4610605239868164,#
2.0003998279571533,-3.390629768371582,0.2871387302875519,-0.1734806150197982,3.3022403717041016,3.199617862701416,#
0.906879723072052,-2.9072794914245605,-0.6747759580612183,-0.1722589135169983,2.979712724685669,2.9528355598449707,#
0.906879723072052,-2.9072794914245605,-0.6747759580612183,-0.1429382413625717,2.791571855545044,2.814784049987793,#
-0.1674975752830505,-2.3545374870300293,-1.6869399547576904,-0.128277912735939,2.372530698776245,2.5215773582458496,#
-0.3469592928886413,-1.9764715433120728,-1.7252250909805298,-0.0806318372488021,2.1452953815460205,2.1514041423797607,#
-1.306481122970581,-2.021935224533081,-1.7252250909805298,-0.0537545569241046,2.036564826965332,1.977923393249512,#
-2.400001049041748,-1.576870083808899,-1.94297194480896,0.0085518611595034,1.83132004737854,1.640735745429993,#
-3.5126638412475586,-1.581655740737915,-1.3663017749786377,-0.1246128380298614,1.572320818901062,1.3353121280670166,#
-3.5126638412475586,-1.581655740737915,-1.3663017749786377,-0.1612636744976043,1.435490965843201,1.2070342302322388,#
-4.225724697113037,-1.8544375896453855,-1.1389836072921753,-0.1087308079004287,1.172826647758484,1.044548749923706,#
-5.343173027038574,-2.155933380126953,-1.0336993932724,0.0097735561430454,0.8942803740501404,0.7977665066719055,#
-5.816952228546143,-2.4430718421936035,-0.916451096534729,0.0610847249627113,0.8063183426856995,0.7085827589035034,#
-5.943771839141846,-2.651247262954712,-1.2370892763137815,0.1258345395326614,0.6707102656364441,0.4825693070888519,#
-5.943771839141846,-2.651247262954712,-1.2370892763137815,0.1417165547609329,0.6157339811325073,0.3811686933040619,#
-6.137589931488037,-3.0005996227264404,-0.7992027401924133,0.2162399291992187,0.5644228458404541,0.2467822879552841,#
-6.86261510848999,-2.878565788269043,-0.3014956414699554,0.3225273489952087,0.499673068523407,0.1441599577665329,#
-7.441678524017334,-2.7182462215423584,-0.763310432434082,0.3616215586662292,0.4312581717967987,0.0965138673782348,#
-7.424928665161133,-2.622533798217773,-1.739582061767578,0.31641885638237,0.3310791850090027,-0.0366508327424526,#
-7.683353424072266,-2.4287149906158447,-2.502892255783081,-0.007330167107284,0.2956500649452209,-0.1942494213581085,#
-7.743173599243164,-2.665604591369629,-2.445464611053467,-0.1856975704431533,0.2773246467113495,-0.3176405727863312,#
-8.171488761901855,-2.9766712188720703,-2.426322221755981,-0.4642439186573028,0.2809897363185882,-0.5436540246009827,#
-8.537590980529785,-3.3236305713653564,-2.514856576919556,-0.7501204013824463,0.2223483920097351,-0.7342383861541748,left
-8.341379165649414,-4.122833251953125,-2.9623143672943115,-0.9040539264678956,0.1905843466520309,-0.8063183426856995,left
-8.341379165649414,-4.122833251953125,-2.9623143672943115,-1.1667182445526123,0.1014006435871124,-0.9602518677711488,left
-7.922636032104492,-4.790431022644043,-4.3381876945495605,-1.3841798305511477,0.0610847249627113,-1.1166287660598757,left
-7.051648139953613,-5.309673309326172,-5.568098068237305,-1.538113355636597,0.0598630309104919,-1.1911520957946775,left
-6.716653347015381,-6.199803352355957,-6.010770320892334,-1.8557538986206052,0.1722589135169983,-1.3059914112091064,left
-6.618547439575195,-7.334001541137695,-5.967699527740479,-2.057333469390869,0.21135313808918,-1.4183871746063232,left
-7.063612461090088,-8.12841796875,-6.943971633911133,-2.2234840393066406,0.1637070626020431,-1.5552170276641846,left
-7.063612461090088,-8.12841796875,-6.943971633911133,-2.224705696105957,-0.0940704718232154,-1.6199668645858765,left
-7.073184013366699,-8.329416275024414,-8.635696411132812,-2.210045337677002,-0.2602209150791168,-1.6114150285720823,left
-6.628118515014648,-9.757929801940918,-10.772488594055176,-2.277238368988037,-0.5302154421806335,-1.50757098197937,left
-5.536991596221924,-11.657832145690918,-12.246465682983398,-2.704831600189209,-0.7501204013824463,-1.5649906396865845,left
-4.599005222320557,-13.7706937789917,-12.811171531677246,-3.1373112201690674,-0.8246437907218933,-1.580872654914856,left
-4.299902439117432,-13.950156211853027,-14.009976387023926,-4.091454982757568,-0.9639169573783876,-1.786117434501648,left
-4.299902439117432,-13.950156211853027,-14.009976387023926,-4.582576274871826,-1.2168077230453491,-1.766570210456848,left
-3.613162040710449,-13.215559005737305,-13.28734302520752,-4.631443500518799,-1.3304253816604614,-1.793447494506836,left
-2.234896183013916,-14.897713661193848,-11.3778715133667,-4.268600463867188,-1.817881464958191,-1.83132004737854,left
-1.241874933242798,-15.328421592712402,-11.849257469177246,-3.3694334030151367,-2.825779438018799,-1.7262543439865112,left
1.0336993932724,-15.735201835632324,-12.038290023803713,-2.791571855545044,-3.3486645221710205,-1.6236319541931152,left
1.0336993932724,-15.735201835632324,-12.038290023803713,-1.9339423179626465,-4.261270523071289,-1.483137130737305,left
2.943171739578247,-17.271392822265625,-11.406585693359377,-1.6382923126220703,-4.65709924697876,-1.3963968753814695,left
5.434100151062012,-16.383655548095703,-9.923035621643066,-1.4965757131576538,-5.452422618865967,-1.1386191844940186,left
6.7310099601745605,-17.467605590820312,-4.867001533508301,-1.8997348546981807,-6.336929321289063,-0.864959716796875,left
7.439285278320312,-17.57288932800293,1.184447169303894,-2.0524466037750244,-6.852484226226807,-0.7440119385719299,left
7.592426776885986,-15.09392547607422,2.1511476039886475,-1.7592401504516602,-8.22811222076416,-0.3469612300395965,left
7.592426776885986,-15.09392547607422,2.1511476039886475,-1.077534556388855,-9.402161598205566,0.0965138673782348,left
9.401400566101074,-14.258829116821287,1.0887343883514404,-0.707361102104187,-9.59885311126709,0.3225273489952087,left
11.018948554992676,-15.014962196350098,5.434100151062012,-0.3481829464435577,-9.499896049499512,0.6291726231575012,left
10.53081226348877,-13.708480834960938,11.009377479553224,0.21135313808918,-9.380170822143556,0.8808417320251465,left
9.832108497619627,-9.82971477508545,10.494919776916504,0.8209787011146545,-9.080855369567873,0.8124268054962158,left
9.832108497619627,-9.82971477508545,10.494919776916504,2.1599559783935547,-7.967891693115234,1.0555440187454224,left
9.162117958068848,-3.493520975112915,10.37527847290039,1.8459802865982056,-5.948430061340332,1.4208307266235352,left
6.5180487632751465,-2.328216552734375,12.930814743041992,1.2155860662460327,-4.97107458114624,1.40617036819458,left
5.26899528503418,-6.398407459259033,14.763714790344238,0.3555130958557129,-3.911865711212158,1.3963968753814695,left
4.981856822967529,-6.379265785217285,14.163116455078123,0.0574196390807628,-3.7249464988708496,1.4049487113952637,left
3.2997026443481445,-2.7828526496887207,12.502498626708984,0.2235700935125351,-3.140976428985596,1.0335536003112793,left
3.2997026443481445,-2.7828526496887207,12.502498626708984,0.6719319820404053,-2.144073724746704,0.786771297454834,left
1.3351951837539673,-1.868794322013855,10.557132720947266,0.6413896083831787,-1.650509238243103,0.767224133014679,left
0.318245381116867,-3.565305471420288,9.305686950683594,0.2480039745569229,-0.7452336549758911,0.9382613897323608,left
0.3661018908023834,-5.699703216552734,10.39202880859375,-0.3188622593879699,-0.2223483920097351,0.8295305371284485,left
-0.2129612118005752,-6.384050369262695,10.736595153808594,-0.4239279925823211,-0.1588202863931656,0.6682668924331665,left
-2.0673987865448,-5.584848403930664,9.332008361816406,-0.1026223376393318,-0.1649287492036819,0.5033381581306458,#
-2.0673987865448,-5.584848403930664,9.332008361816406,0.439810037612915,0.0048867780715227,0.3457395434379577,#
-2.8211379051208496,-4.4961137771606445,8.60219669342041,0.5766398310661316,0.007330167107284,0.2797680497169494,#
-2.65842604637146,-4.431507587432861,8.37727165222168,0.549762487411499,-0.0427593067288398,0.2418954968452453,#
-2.75174617767334,-4.792823314666748,8.559126853942871,0.310310423374176,0.0647498071193695,0.1380514800548553,#
-3.060420036315918,-5.134997367858887,8.025527954101562,0.2394521236419677,0.1148392781615257,0.0598630309104919,#
-3.060420036315918,-5.134997367858887,8.025527954101562,0.2553341388702392,0.152711808681488,-0.0671931952238082,#
-3.469593048095703,-5.079962730407715,7.020541667938232,0.2699944972991943,0.1844758540391922,-0.1380514800548553,#
-3.6251261234283447,-5.309673309326172,6.190232276916504,0.3457395434379577,0.2834331095218658,-0.3066453039646148,#
-3.194417953491211,-5.029713153839111,6.199803352355957,0.3530696928501129,0.2406738102436065,-0.3823903799057007,#
-2.6943180561065674,-5.386244297027588,6.137589931488037,0.3261924386024475,0.1869192570447921,-0.416597843170166,#
-2.2133607864379883,-5.924628734588623,6.058626651763916,0.4043808877468109,0.1685938388109207,-0.4679089784622192,#
-2.2133607864379883,-5.924628734588623,6.058626651763916,0.4984513521194458,0.2028012871742248,-0.5131116509437561,#
-1.8209381103515625,-5.245067596435547,6.26440954208374,0.4886777997016907,0.1136175915598869,-0.5448757410049438,#
-2.3712873458862305,-4.735395908355713,6.302694320678711,0.6193991303443909,-0.0806318372488021,-0.5607577562332153,#
-3.500699520111084,-4.395615100860596,5.678168296813965,0.7550071477890015,-0.0452026948332786,-0.5766398310661316,#
-3.5054850578308105,-4.067798614501953,5.283352375030518,0.6707102656364441,-0.0635281130671501,-0.6047387719154358,#
-1.9884356260299685,-4.063012599945068,5.166104316711426,0.3677300214767456,-0.3677300214767456,-0.6670452356338501,#
-1.9884356260299685,-4.063012599945068,5.166104316711426,0.1258345395326614,-0.9345962405204772,-0.7110261917114258,#
-0.763310432434082,-3.88594388961792,5.517848491668701,0.0329857505857944,-1.178935170173645,-0.73912513256073,#
-1.131805181503296,-3.830909013748169,5.733203411102295,0.0904053896665573,-1.1618314981460571,-0.8429691791534424,#
-2.3401806354522705,-3.969692707061768,5.347958564758301,0.411711037158966,-0.6646018028259277,-1.0152281522750854,#
-1.6821542978286743,-3.029313325881958,4.871786594390869,0.4960079491138458,-0.5607577562332153,-1.100746750831604,#
-1.6821542978286743,-3.029313325881958,4.871786594390869,0.1588202863931656,-0.9089407324790956,-1.2559019327163696,#
0.3086740970611572,-2.514856576919556,5.460421085357666,-0.1123958900570869,-1.2229161262512207,-1.3304253816604614,#
1.9142580032348635,-3.3403804302215576,5.989234924316406,-0.4703523814678192,-1.5283397436141968,-1.446486234664917,#
1.4668002128601074,-4.326223373413086,6.147161483764648,-0.5937435030937195,-1.09219491481781,-1.5417784452438354,#
0.8925228118896484,-4.996213912963867,5.458028793334961,-0.5583143830299377,-0.9162708520889282,-1.5442218780517578,#
1.9286150932312007,-4.180261135101318,5.077569961547852,-0.3188622593879699,-0.712247908115387,-1.8569756746292116,#
1.9286150932312007,-4.180261135101318,5.077569961547852,-0.0415376126766204,-1.022558331489563,-1.9754799604415891,#
2.567498683929444,-3.476771354675293,5.204389572143555,0.0048867780715227,-0.9871291518211364,-2.2112669944763184,#
2.411965131759644,-2.9383859634399414,5.352744102478027,-0.2235700935125351,-0.9028322100639344,-2.305337429046631,#
2.825923442840576,-4.264009952545166,5.314458847045898,-0.6169556975364685,-0.8380824327468872,-2.3713088035583496,#
3.5054850578308105,-5.56331205368042,4.962714195251465,-0.7928797006607056,-0.8625163435935974,-2.4568276405334477,#
3.5054850578308105,-5.56331205368042,4.962714195251465,-0.9248227477073668,-0.9407047629356384,-2.633973360061645,#
4.063012599945068,-5.613561630249023,5.070391178131104,-0.9382613897323608,-1.0017894506454468,-2.829444408416748,#
3.967299938201904,-4.931607723236084,5.118247985839844,-1.012784719467163,-0.9688037633895874,-2.827000856399536,#
4.974678039550781,-5.790630340576172,5.197210788726807,-1.5430002212524414,-0.9223793148994446,-2.8477697372436523,#
6.398407459259033,-7.23589563369751,5.209175109863281,-2.192941665649414,-1.0188932418823242,-2.890529155731201,#
7.018148422241211,-8.343771934509277,5.240281581878662,-2.366422176361084,-1.0103412866592407,-2.8746471405029297,#
7.018148422241211,-8.343771934509277,5.240281581878662,-2.3248846530914307,-0.9688037633895874,-2.8966376781463623,#
6.704688549041748,-8.84626579284668,5.175675392150879,-2.1184182167053223,-0.9028322100639344,-2.941840171813965,#
6.9344000816345215,-7.712067127227783,5.094319343566895,-1.7787871360778809,-0.6438329815864563,-3.086000442504883,#
7.805387496948242,-6.872186660766602,4.292723655700684,-1.927833914756775,-0.554649293422699,-3.13608980178833,#
9.236295700073242,-8.413164138793945,3.7950167655944815,-2.1819465160369877,-0.5509842038154602,-3.164188861846924,#
9.363115310668944,-9.315258979797363,4.005585193634033,-2.50813889503479,-0.4043808877468109,-3.1751840114593506,#
9.363115310668944,-9.315258979797363,4.005585193634033,-2.6938364505767822,-0.256555825471878,-3.143419981002808,#
9.15493869781494,-9.76271629333496,3.646661758422852,-2.568001747131348,-0.1673721522092819,-3.12631630897522,#
9.336793899536133,-8.729016304016113,3.1800613403320312,-2.317554235458374,-0.0794101431965828,-3.0847785472869877,#
9.765109062194824,-8.257630348205566,2.7589242458343506,-2.178281307220459,0.0280989725142717,-3.0017035007476807,#
10.607381820678713,-8.578269004821777,2.627319574356079,-2.175837755203247,0.0684148892760276,-2.935731887817383,#
10.607381820678713,-8.578269004821777,2.627319574356079,-2.427506923675537,0.0439810007810592,-2.798902034759521,#
10.313065528869627,-8.817551612854004,2.610569477081299,-2.5667803287506104,-0.0012216945178806,-2.732930421829224,#
10.296316146850586,-8.518448829650879,2.132004976272583,-2.6315298080444336,-0.0293206684291362,-2.5594499111175537,#
10.365707397460938,-8.346165657043457,1.8759729862213133,-2.58021879196167,-0.0219905003905296,-2.418955087661743,#
10.449455261230469,-8.731410026550293,1.7132610082626345,-2.5179123878479004,0.0171037223190069,-2.313889265060425,#
10.418350219726562,-8.592625617980957,1.7730815410614014,-2.4091813564300537,0.1087308079004287,-2.1416304111480717,#
10.418350219726562,-8.592625617980957,1.7730815410614014,-2.365200519561768,0.1062874197959899,-1.964484691619873,#
10.181459426879885,-8.329416275024414,1.6534404754638672,-2.284568548202514,0.0916270837187767,-1.8643057346343996,#
10.045069694519045,-7.599604606628418,1.4404792785644531,-2.2344791889190674,0.0354291386902332,-1.6358489990234375,#
9.731609344482422,-7.22871732711792,1.3328022956848145,-2.284568548202514,-0.0537545569241046,-1.3731845617294312,#
9.60478973388672,-6.92482852935791,1.2514461278915403,-2.265021562576294,-0.1026223376393318,-1.2461284399032593,#
9.580862045288086,-6.896114826202393,1.1365907192230225,-2.163620948791504,-0.1771456897258758,-1.0555440187454224,#
9.580862045288086,-6.896114826202393,1.1365907192230225,-1.9522677659988403,-0.2125748395919799,-0.9223793148994446,#
9.31047248840332,-6.656832218170166,1.0719845294952393,-1.8129945993423464,-0.2247917801141739,-0.8783983588218689,#
9.028119087219238,-6.173482418060303,0.9643075466156006,-1.5991979837417605,-0.2284568697214126,-0.8160918951034546,#
8.934800148010254,-6.168696403503418,0.8805587291717529,-1.400061845779419,-0.2064663618803024,-0.7941014170646667,#
8.896513938903809,-5.900700569152832,0.9810572862625122,-1.3072130680084229,-0.1966928243637085,-0.7769976854324341,#
8.896513938903809,-5.900700569152832,0.9810572862625122,-1.233911395072937,-0.2040229737758636,-0.726908266544342,#
8.863015174865723,-5.6925249099731445,0.9475577473640442,-1.2363548278808594,-0.2162399291992187,-0.6951441764831543,#
9.090332984924316,-5.871986389160156,0.8901299238204956,-1.2620103359222412,-0.258999228477478,-0.6291726231575012,#
8.9850492477417,-5.711667537689209,0.8685945868492126,-1.257123589515686,-0.3042019307613373,-0.517998456954956,#
8.891729354858398,-5.383851051330566,0.6843472719192505,-1.244906663894653,-0.3213056325912475,-0.4776825606822967,#
9.035298347473145,-5.079962730407715,0.5407779216766357,-1.137397527694702,-0.3408527672290802,-0.3836120665073395,#
9.035298347473145,-5.079962730407715,0.5407779216766357,-1.045770525932312,-0.3127537965774536,-0.3347443044185638,#
9.245866775512695,-4.828716278076172,0.4618147313594818,-1.0017894506454468,-0.282211422920227,-0.3188622593879699,#
9.226724624633787,-4.316651821136475,0.4498506784439087,-0.9211575984954834,-0.1893626451492309,-0.2651077210903168,#
9.028119087219238,-3.768695831298828,0.5072783827781677,-0.95658677816391,-0.0965138673782348,-0.2064663618803024,#
9.18843936920166,-3.806980848312378,0.705882728099823,-1.0188932418823242,-0.0610847249627113,-0.1844758540391922,#
9.18843936920166,-3.806980848312378,0.705882728099823,-1.1166287660598757,-0.0195471122860908,-0.1466033309698104,#
9.332008361816406,-3.8261232376098633,0.7776673436164856,-1.211920976638794,-0.0232121963053941,-0.0842969194054603,#
9.482755661010742,-3.596412420272827,0.3086740970611572,-1.243685007095337,-0.0488677769899368,-0.0525328628718853,#
9.578469276428224,-3.5030922889709477,-0.1507478207349777,-1.2693406343460083,-0.0500894747674465,-0.0085518611595034,#
9.499505043029783,-3.38823676109314,0.2344966232776641,-1.26567542552948,-0.0305423624813556,-0.0085518611595034,#
9.71485996246338,-3.840480089187622,1.196411371231079,-1.2864443063735962,0.0342074446380138,0.0513111688196659,#
9.71485996246338,-3.840480089187622,1.196411371231079,-1.172826647758484,0.0598630309104919,0.031764056533575,#
9.817750930786133,-3.5581274032592773,0.9786643981933594,-1.0738694667816162,0.0342074446380138,0.0537545569241046,#
9.68375301361084,-3.067598581314087,0.138783723115921,-0.8686248064041138,0.0097735561430454,0.1099525094032287,#
9.62393283843994,-2.8211379051208496,-0.3565305471420288,-0.84541255235672,0.1111741960048675,0.1392731666564941,#
9.28175926208496,-3.170490026473999,-0.2632104754447937,-0.8820634484291077,0.1966928243637085,0.129499614238739,#
9.023333549499512,-3.230310440063477,-0.0071784676983952,-0.910162389278412,0.3188622593879699,0.0561979450285434,#
9.023333549499512,-3.230310440063477,-0.0071784676983952,-0.8710681796073914,0.2773246467113495,0.0708582773804664,#
8.941977500915527,-3.345165967941284,0.0071784676983952,-0.7965447902679443,0.2162399291992187,0.0598630309104919,#
9.18843936920166,-3.225525140762329,-0.1483550071716308,-0.5558710098266602,0.0769667476415634,0.0268772784620523,#
9.399007797241213,-2.950350284576416,-0.1674975752830505,-0.3249707520008087,-0.0488677769899368,-0.0366508327424526,#
9.489934921264648,-2.770888566970825,-0.3684946894645691,-0.258999228477478,-0.069636583328247,-0.0769667476415634,#
9.489934921264648,-2.770888566970825,-0.3684946894645691,-0.2125748395919799,-0.0965138673782348,-0.0916270837187767,#
9.437292098999023,-2.8426735401153564,-0.5216353535652161,-0.256555825471878,-0.069636583328247,-0.0940704718232154,#
9.28175926208496,-3.242274522781372,-0.4570291042327881,-0.3542913794517517,0.0085518611595034,-0.0818535313010215,#
9.413363456726074,-3.565305471420288,-0.2967100143432617,-0.3310791850090027,0.1014006435871124,-0.1087308079004287,#
9.66221809387207,-3.428915023803711,-0.4809573292732239,-0.2577775418758392,0.129499614238739,-0.1246128380298614,#
9.525827407836914,-3.062812805175781,-0.5144568681716919,-0.0708582773804664,0.1417165547609329,-0.1429382413625717,#
9.525827407836914,-3.062812805175781,-0.5144568681716919,0.0012216945178806,0.1429382413625717,-0.1221694499254226,#
9.367900848388672,-3.2039895057678223,-0.5288137793540955,-0.0024433890357613,0.1356080919504165,-0.1087308079004287,#
9.53779125213623,-3.433700561523437,-0.0717846825718879,-0.1087308079004287,0.1038440242409706,-0.0610847249627113,#
9.710074424743652,-3.7878382205963135,0.4115655124187469,-0.2235700935125351,0.0757450610399246,0.0122169442474842,#
10.011569023132324,-4.120440483093262,0.4881358444690704,-0.2541124522686004,0.0586413368582725,0.0635281130671501,#
9.781858444213867,-4.34536600112915,0.4235295951366424,-0.2956500649452209,0.0586413368582725,0.1942494213581085,#
9.781858444213867,-4.34536600112915,0.4235295951366424,-0.3396310806274414,0.1966928243637085,0.3408527672290802,#
9.633503913879396,-4.498506546020508,0.5838487148284912,-0.3982723951339721,0.3005368411540985,0.4043808877468109,#
9.571290969848633,-4.898108005523682,1.998006820678711,-0.549762487411499,0.5082249045372009,0.4911211729049682,#
9.736394882202148,-5.599205493927002,2.328216552734375,-0.6927007436752319,0.6230642199516296,0.6169556975364685,#
10.121639251708984,-5.938986301422119,2.108076810836792,-0.7256865501403809,0.6169556975364685,0.6914790868759155,#
10.121639251708984,-5.938986301422119,2.108076810836792,-0.7892146706581116,0.6902573704719543,0.8319739699363708,#
10.418350219726562,-6.33380126953125,2.218146562576294,-0.836860716342926,0.7415685653686523,0.9126058220863342,#
10.53799057006836,-7.226324081420898,3.1824538707733154,-1.0592091083526611,0.9846857786178588,1.1691615581512451,#
10.207781791687012,-9.059226989746094,4.388436794281006,-1.381736397743225,1.2534584999084473,1.4623682498931885,#
10.55474090576172,-10.906485557556152,5.347958564758301,-1.5002408027648926,1.3157649040222168,1.6138584613800049,#
10.901700019836426,-12.308679580688477,5.276174068450928,-1.452594757080078,1.3573025465011597,1.8814095258712769,#
10.901700019836426,-12.308679580688477,5.276174068450928,-1.0763128995895386,1.392731785774231,2.144073724746704,#
11.480762481689451,-12.478569984436035,5.118247985839844,-0.9785772562026978,1.4049487113952637,2.26990818977356,#
11.679367065429688,-13.220344543457031,5.484349250793457,-0.6108472347259521,1.501462459564209,2.544789552688598,#
12.098111152648926,-13.694124221801758,4.938785552978516,-0.3958290219306946,1.6224102973937988,2.9027462005615234,#
12.588640213012695,-13.500306129455566,4.632504463195801,-0.2541124522686004,1.682273268699646,3.0713398456573486,#
12.588640213012695,-13.500306129455566,4.632504463195801,-0.0537545569241046,1.8410935401916504,3.4073057174682617,#
12.710674285888672,-14.33779239654541,5.374279499053955,0.1160609796643257,1.9534894227981567,3.6430931091308594,#
12.397214889526367,-14.622538566589355,4.704289436340332,0.2785463333129883,1.9852535724639893,3.7677059173583984,#
12.337392807006836,-14.081761360168455,4.101297855377197,0.601073682308197,1.9595979452133176,4.007157802581787,#
12.775279998779297,-14.12243938446045,3.7256247997283936,0.7965447902679443,2.015795946121216,4.240501403808594,#
12.92602825164795,-14.55793285369873,4.113262176513672,0.8674030900001526,2.0866541862487797,4.340680599212647,#
12.92602825164795,-14.55793285369873,4.113262176513672,1.1044118404388428,2.2686867713928223,4.492170810699463,#
12.35414218902588,-13.674981117248535,3.4983065128326416,1.2913310527801514,2.3566486835479736,4.576467514038086,#
11.645866394042969,-11.787044525146484,3.242274522781372,1.8215465545654297,2.7231569290161133,4.666872978210449,#
9.26740264892578,-9.975677490234377,3.129812002182007,2.0817673206329346,3.324230670928955,4.638773918151856,#
8.815157890319824,-8.09970474243164,2.629711866378784,2.082988977432251,3.5184803009033203,4.56547212600708,#
8.015955924987793,-7.345965385437012,1.428515076637268,1.751909852027893,3.7298333644866943,4.719405651092529,#
8.015955924987793,-7.345965385437012,1.428515076637268,1.1276240348815918,3.755488872528076,4.555698871612549,#
7.147361278533936,-6.26440954208374,0.0526420958340168,0.84541255235672,3.721281528472901,4.528821468353272,#
5.55852746963501,-5.056034088134766,0.1004985496401786,0.5326588153839111,3.616215705871582,4.371222972869873,#
4.780859470367432,-4.244867324829102,-0.5000999569892883,0.5729747414588928,3.467169046401977,4.209959030151367,#
3.603590488433838,-2.67278265953064,-1.098305583000183,0.684148907661438,3.4549520015716557,4.103672027587891,#
3.603590488433838,-2.67278265953064,-1.098305583000183,0.8661814332008362,3.4610605239868164,3.819017171859741,#
2.7589242458343506,-1.4811571836471558,-0.9451649785041808,0.96147358417511,3.352329730987549,3.6699702739715576,#
1.1724830865859983,-0.3445664942264557,-0.6580261588096619,1.0298885107040403,3.197174549102783,3.35843825340271,#
0.114855483174324,0.3948157429695129,-0.1076770275831222,0.893058717250824,3.011476993560791,3.0530147552490234,#
-1.2083754539489746,-0.0263210479170084,0.2033899277448654,0.7892146706581116,2.8477697372436523,2.8734254837036133,#
-2.579463005065918,-0.6101697683334351,-0.4283152520656585,0.6914790868759155,2.4666011333465576,2.410403251647949,#
-2.579463005065918,-0.6101697683334351,-0.4283152520656585,0.6499415040016174,1.9498244524002075,2.032899618148804,#
-3.290131092071533,-0.8949156999588013,-0.8925228118896484,0.6279509663581848,1.7213674783706665,1.8239898681640625,#
-4.666004180908203,-0.5096712112426758,-0.3206382095813751,0.393385648727417,1.382958173751831,1.3658545017242432,#
-5.998805999755859,-0.3206382095813751,0.3876372575759887,-0.0537545569241046,1.1630531549453735,0.9468132257461548,#
-6.307480335235596,-0.6005984544754028,0.9044869542121888,-0.2993151545524597,1.067760944366455,0.7879929542541504,#
-6.467799663543701,-1.1724830865859983,0.4522434771060943,-0.5803048610687256,0.864959716796875,0.5900784730911255,#
-6.467799663543701,-1.1724830865859983,0.4522434771060943,-0.6218425035476685,0.6633800864219666,0.463022232055664,#
-7.147361278533936,-1.5936198234558103,0.0358923412859439,-0.5522059202194214,0.5717529654502869,0.393385648727417,#
-7.561319828033447,-1.5433706045150757,-0.117248311638832,-0.2577775418758392,0.4972296357154846,0.2528907656669616,#
-7.738388061523437,-1.239482045173645,0.117248311638832,0.0305423624813556,0.5155550837516785,0.123391143977642,#
-7.932207107543945,-1.1772687435150146,0.0454636327922344,0.1368297785520553,0.53143709897995,0.0684148892760276,#
-7.932207107543945,-1.1772687435150146,0.0454636327922344,0.2944283783435821,0.5094466209411621,-0.0757450610399246,#
-7.9585280418396,-1.0695916414260864,-0.5359922647476196,0.3139754831790924,0.4850127100944519,-0.1575985848903656,#
-7.793423175811768,-1.6582260131835938,-1.124626636505127,0.2663294076919555,0.4618005454540252,-0.3481829464435577,#
-7.477570533752441,-1.794616937637329,-0.8494520783424377,0.1856975704431533,0.4972296357154846,-0.5803048610687256,#
-7.499105930328369,-2.0961124897003174,-1.277767300605774,0.1966928243637085,0.4337015450000763,-0.680483877658844,#
-7.52303409576416,-2.6775684356689453,-1.8759729862213133,0.0855186134576797,0.4019374847412109,-0.9187142252922058,#
-7.52303409576416,-2.6775684356689453,-1.8759729862213133,-0.21135313808918,0.333522617816925,-1.1215155124664309,#
-7.5326056480407715,-3.3403804302215576,-2.3090739250183105,-0.4141544103622436,0.2980934381484985,-1.2351330518722534,#
-7.448856830596924,-4.206582069396973,-2.9766712188720703,-0.9223793148994446,0.2418954968452453,-1.453816533088684,#
-6.881758213043213,-4.78803825378418,-3.153740167617798,-1.3035480976104736,0.256555825471878,-1.695711970329285,#
-6.726224899291992,-5.649453639984131,-3.613162040710449,-1.4904673099517822,0.2834331095218658,-1.7555750608444214,left
-6.726224899291992,-5.649453639984131,-3.613162040710449,-1.8252116441726685,0.3640649616718292,-1.951046109199524,left
-6.783651828765869,-6.388835906982422,-4.864608287811279,-2.028012752532959,0.4544703662395477,-2.057333469390869,left
-6.577868938446045,-7.039684295654297,-6.350551128387451,-2.1514041423797607,0.4776825606822967,-2.074437141418457,left
-5.773881435394287,-8.623733520507812,-7.185646057128906,-2.455605745315552,0.5485408306121826,-2.1416304111480717,left
-5.216352939605713,-11.44008445739746,-7.934599876403809,-2.603430986404419,0.5558710098266602,-2.212488889694214,left
-4.847858428955078,-13.665410041809082,-8.997013092041016,-2.7903501987457275,0.4666872918605804,-2.351761817932129,left
-4.847858428955078,-13.665410041809082,-8.997013092041016,-2.9955947399139404,0.2309002727270126,-2.3358798027038574,left
-4.826323509216309,-13.50748348236084,-10.76530933380127,-3.1666321754455566,0.0916270837187767,-2.2894556522369385,left
-4.953143119812012,-12.459427833557127,-12.366107940673828,-3.4317398071289062,-0.2186833024024963,-2.129413604736328,left
-4.529613494873047,-12.607781410217283,-13.971692085266112,-3.434183359146118,-0.5192201733589172,-2.0121307373046875,left
-3.397808313369751,-14.256437301635742,-13.765909194946287,-3.316900491714477,-0.6584933400154114,-2.006022453308105,left
-2.069791555404663,-14.792428970336914,-13.344771385192873,-2.907633066177368,-1.0494356155395508,-2.0927627086639404,left
-2.069791555404663,-14.792428970336914,-13.344771385192873,-2.715826749801636,-1.6712781190872192,-2.0634419918060303,left
-0.8015955686569214,-13.83290672302246,-14.07458209991455,-2.725600242614746,-2.142852067947388,-2.093984365463257,left
0.935593605041504,-13.05763339996338,-14.993427276611328,-2.7414824962615967,-3.305905342102051,-1.979145050048828,left
2.909672498703003,-13.359129905700684,-13.852049827575684,-2.399407863616944,-4.602123260498047,-1.8838529586791992,left
5.946164608001709,-15.314064025878906,-10.619346618652344,-2.0084657669067383,-5.332695960998535,-1.7787871360778809,left
5.946164608001709,-15.314064025878906,-10.619346618652344,-0.8087617754936218,-6.867144584655762,-1.6602827310562134,left
8.295915603637695,-15.632309913635254,-4.912464618682861,-0.261442631483078,-7.699119091033935,-1.5405566692352295,left
9.073582649230955,-16.28794288635254,-0.3876372575759887,0.4141544103622436,-9.36550998687744,-1.1056334972381592,left
8.154739379882812,-13.33998680114746,1.179661512374878,0.5680879354476929,-11.144296646118164,-0.4031591713428497,left
11.856435775756836,-15.620347023010254,2.553141593933105,0.3970507085323334,-11.712385177612305,0.0329857505857944,left
12.2799654006958,-16.56311798095703,3.838087558746338,0.5387672781944275,-11.87120532989502,0.8710681796073914,left
12.2799654006958,-16.56311798095703,3.838087558746338,1.369519591331482,-11.133301734924316,0.7550071477890015,left
10.447062492370604,-12.46660614013672,3.5294132232666016,2.172172784805298,-10.407615661621094,0.9223793148994446,left
11.72722339630127,-6.309873104095459,7.537391662597656,3.5306971073150635,-8.507880210876465,1.452594757080078,left
12.162715911865234,-1.6534404754638672,15.0604248046875,2.464157819747925,-5.9203314781188965,1.433047652244568,left
9.93978500366211,-2.026720762252808,15.407384872436523,2.051224946975708,-4.889221668243408,1.27544903755188,left
9.93978500366211,-2.026720762252808,15.407384872436523,1.8508671522140503,-4.206294059753418,1.1202938556671145,left
9.016156196594238,-2.801995038986206,14.476577758789062,1.5222313404083252,-3.606442213058472,1.4110571146011353,left
7.195217609405518,-2.321038007736206,12.397214889526367,1.4257174730300903,-3.140976428985596,1.397618532180786,left
4.919642925262451,-1.6821542978286743,10.932806968688965,0.9810206294059752,-2.1416304111480717,1.47825026512146,left
3.768695831298828,-2.5746772289276123,11.815757751464844,0.6865922808647156,-1.6627261638641355,1.5234529972076416,left
2.538784980773926,-3.7639100551605225,12.5742826461792,0.2345653474330902,-0.8527427315711975,1.3328686952590942,left
2.538784980773926,-3.7639100551605225,12.5742826461792,0.3811686933040619,-0.3836120665073395,0.9492565989494324,left
1.3639088869094849,-4.053441524505615,12.361321449279783,0.6487197875976562,-0.3261924386024475,0.8148701786994934,#
0.0885344371199607,-2.995814085006714,10.8969144821167,0.9639169573783876,-0.3616215586662292,0.5803048610687256,#
-0.2847459018230438,-2.263610363006592,9.750752449035645,0.9956809878349304,-0.2150182276964187,0.4019374847412109,#
-0.6699903011322021,-2.675175428390503,9.379864692687988,0.8722898364067078,-0.0390942245721817,0.333522617816925,#
-1.9573287963867188,-3.404986619949341,9.09511947631836,0.5900784730911255,0.3005368411540985,0.1698155403137207,#
-1.9573287963867188,-3.404986619949341,9.09511947631836,0.6548282504081726,0.7513421177864075,-0.0048867780715227,#
-2.9168508052825928,-3.735196113586426,8.358129501342773,0.7366817593574524,0.8979454636573792,-0.0952921733260154,#
-2.1846470832824707,-3.098705530166626,7.886743545532227,0.4801259338855743,0.7342383861541748,-0.261442631483078,#
-1.0193424224853516,-3.7639100551605225,7.671389579772949,0.1197260618209838,0.2883199155330658,-0.3665083348751068,#
-1.7515461444854736,-4.256831645965576,7.17368221282959,0.0048867780715227,0.1673721522092819,-0.4080459475517273,#
-1.7515461444854736,-4.256831645965576,7.17368221282959,-0.0488677769899368,0.3384093642234802,-0.4862344264984131,#
-2.3258235454559326,-4.6301116943359375,6.415157318115234,0.0549762547016143,0.3432961404323578,-0.660936713218689,#
-1.1653046607971191,-3.8261232376098633,5.639883518218994,0.3823903799057007,0.1661504507064819,-0.7134696245193481,#
0.5288137793540955,-3.1274189949035645,5.560920238494873,0.4972296357154846,-0.2932066619396209,-0.8222004175186157,#
0.5694918036460876,-2.744567632675171,6.005984783172607,0.4862344264984131,-0.4642439186573028,-0.893058717250824,#
-1.2227323055267334,-2.560320377349853,5.711667537689209,0.4190412163734436,-0.3701734542846679,-1.0188932418823242,#
-1.2227323055267334,-2.560320377349853,5.711667537689209,0.3432961404323578,0.0195471122860908,-1.1251806020736694,#
-2.014756679534912,-2.2755744457244877,5.079962730407715,0.2504473626613617,0.0109952501952648,-1.202147364616394,#
-0.5934200286865234,-2.0195422172546387,4.852644443511963,-0.1014006435871124,-0.439810037612915,-1.3915101289749146,#
1.56251323223114,-3.046063184738159,4.800002098083496,-0.2394521236419677,-0.9223793148994446,-1.5845377445220947,#
2.675175428390503,-3.5030922889709477,5.06799840927124,-0.1637070626020431,-0.9944592714309692,-1.6529526710510254,#
1.935793399810791,-2.837887763977051,5.357529640197754,-0.0671931952238082,-0.8087617754936218,-1.7800087928771973,#
1.935793399810791,-2.837887763977051,5.357529640197754,-0.2296785563230514,-0.517998456954956,-1.9119518995285036,#
0.8973084688186646,-1.8472589254379272,5.434100151062012,-0.4666872918605804,-0.5338804721832275,-1.9168386459350584,#
1.411765456199646,-3.259024381637573,5.118247985839844,-0.9578084945678712,-0.5913001298904419,-2.0634419918060303,#
3.431307554244995,-5.737988471984863,4.759324073791504,-1.086086392402649,-0.8441908955574036,-2.169729471206665,#
4.429114818572998,-6.058626651763916,4.9435715675354,-1.086086392402649,-0.9064972996711732,-2.255248069763184,#
4.429114818572998,-6.058626651763916,4.9435715675354,-1.2766708135604858,-0.8722898364067078,-2.557006359100342,#
3.4241292476654053,-6.185446262359619,5.37188720703125,-1.2216944694519043,-0.7562289237976074,-2.659628868103028,#
2.1750757694244385,-5.974878311157227,5.173282146453857,-0.9187142252922058,-0.5558710098266602,-2.5765538215637207,#
3.3092737197875977,-5.61834716796875,5.565705299377441,-1.3145432472229004,-0.7281299233436584,-2.757364511489868,#
4.910072326660156,-6.656832218170166,5.434100151062012,-1.5063492059707642,-0.9382613897323608,-2.8013453483581543,#
5.441278457641602,-7.6737823486328125,5.314458847045898,-1.641957402229309,-1.0469921827316284,-2.8856422901153564,#
5.441278457641602,-7.6737823486328125,5.314458847045898,-1.81177282333374,-1.0433270931243896,-2.8599867820739746,#
4.764110088348389,-7.561319828033447,4.900500774383545,-1.9363857507705688,-0.999346137046814,-2.861208438873291,#
5.108676433563232,-7.267002105712891,4.60857629776001,-1.9082868099212649,-0.8845068216323853,-2.963830947875977,#
6.161518096923828,-6.941578388214111,4.737788677215576,-2.0145742893218994,-0.8783983588218689,-3.073783159255981,#
7.16650390625,-7.999206066131592,4.342973232269287,-2.169729471206665,-0.84541255235672,-3.081113338470459,#
7.16650390625,-7.999206066131592,4.342973232269287,-2.2980072498321533,-0.6719319820404053,-3.1312029361724854,#
7.898707389831543,-8.685946464538574,3.862015962600708,-2.4543843269348145,-0.6279509663581848,-3.197174549102783,#
8.396414756774902,-9.229117393493652,3.460021495819092,-2.412846565246582,-0.5766398310661316,-3.222830057144165,#
7.915457248687744,-8.69791030883789,3.345165967941284,-2.3713088035583496,-0.4178195297718048,-3.2668111324310303,#
8.023134231567383,-8.34855842590332,2.931207656860352,-2.4091813564300537,-0.3139754831790924,-3.2765846252441406,#
8.817551612854004,-8.760124206542969,2.550748825073242,-2.563115119934082,-0.1905843466520309,-3.2264950275421143,#
8.817551612854004,-8.760124206542969,2.550748825073242,-2.786684989929199,-0.1368297785520553,-3.140976428985596,#
9.533005714416504,-9.499505043029783,2.5196423530578613,-2.839218139648437,-0.0977355539798736,-3.1079907417297363,#
9.96371364593506,-9.016156196594238,2.117647886276245,-2.905189514160156,-0.0708582773804664,-3.075005054473877,#
10.636096000671388,-9.159724235534668,1.6582260131835938,-2.774468183517456,-0.0647498071193695,-2.9809346199035645,#
10.341779708862305,-8.188239097595215,1.0289137363433838,-2.695058107376098,-0.0574196390807628,-2.901524305343628,#
10.626524925231934,-8.379664421081543,0.4905286431312561,-2.831887722015381,0.0427593067288398,-2.745147466659546,#
10.626524925231934,-8.379664421081543,0.4905286431312561,-2.789128541946411,0.1771456897258758,-2.611982822418213,#
11.002198219299316,-8.819944381713867,0.5168496966362,-2.8245575428009038,0.2247917801141739,-2.5215773582458496,#
11.13619613647461,-9.075976371765137,0.5551348924636841,-2.800123691558838,0.2748812437057495,-2.3236629962921143,#
11.169696807861328,-8.767301559448242,0.3134597539901733,-2.776911497116089,0.2626643180847168,-2.144073724746704,#
10.7437744140625,-8.097311973571777,0.4713860750198364,-2.7879068851470947,0.2296785563230514,-2.010909080505371,#
10.7437744140625,-8.097311973571777,0.4713860750198364,-2.8893074989318848,0.1026223376393318,-1.6761648654937744,#
10.399208068847656,-7.869993209838867,0.6101697683334351,-2.779355049133301,-0.0598630309104919,-1.3805147409439087,#
9.820144653320312,-7.389035701751709,0.760917603969574,-2.633973360061645,-0.1429382413625717,-1.2546802759170532,#
9.497113227844238,-6.886543273925781,0.7752745151519775,-2.175837755203247,-0.3396310806274414,-1.031110167503357,#
9.710074424743652,-6.10887622833252,0.5144568681716919,-1.926612138748169,-0.439810037612915,-0.9492565989494324,#
9.930214881896973,-6.113661766052246,0.5240281224250793,-1.6040849685668943,-0.6303943395614624,-0.8527427315711975,#
9.930214881896973,-6.113661766052246,0.5240281224250793,-1.3157649040222168,-0.726908266544342,-0.8515210747718811,#
9.80100154876709,-6.214160442352295,0.5000999569892883,-1.189930438995361,-0.7488986849784851,-0.8344173431396484,#
9.456435203552246,-5.718846321105957,0.6245267391204834,-0.9675819873809814,-0.7464553117752075,-0.8246437907218933,#
9.442078590393066,-5.54177713394165,0.5790630578994751,-0.6988092660903931,-0.7207997441291809,-0.7415685653686523,#
9.422935485839844,-5.12303352355957,0.4618147313594818,-0.5754181146621704,-0.7036960124969482,-0.6902573704719543,#
9.468399047851562,-4.67078971862793,0.4929214715957641,-0.4581354260444641,-0.6646018028259277,-0.5766398310661316,#
9.468399047851562,-4.67078971862793,0.4929214715957641,-0.445918470621109,-0.620620846748352,-0.4837909936904907,#
9.382257461547852,-4.4027934074401855,0.4450649619102478,-0.4679089784622192,-0.6132906079292297,-0.4446967840194702,#
9.315258979797363,-4.115654945373535,0.4450649619102478,-0.5436540246009827,-0.5729747414588928,-0.3591781854629516,#
9.109475135803224,-3.9553356170654297,0.4211367666721344,-0.6939224600791931,-0.5351021885871887,-0.2541124522686004,#
9.145368576049805,-4.206582069396973,0.519242525100708,-0.7794410586357117,-0.5106682777404785,-0.1979145109653473,#
9.145368576049805,-4.206582069396973,0.519242525100708,-0.9028322100639344,-0.4618005454540252,-0.1075091138482093,#
9.449256896972656,-4.381258487701416,0.6843472719192505,-0.8955020904541016,-0.4300364553928375,-0.0708582773804664,#
9.633503913879396,-4.240081787109375,0.7082754969596863,-0.8222004175186157,-0.342074453830719,-0.0452026948332786,#
9.54496955871582,-3.87876558303833,0.6843472719192505,-0.7085827589035034,-0.2541124522686004,-0.0134386392310261,#
9.920641899108888,-3.976871252059937,0.5910272002220154,-0.7183563709259033,-0.2247917801141739,0.0268772784620523,#
9.851251602172852,-4.5583271980285645,1.043270707130432,-0.7928797006607056,-0.1075091138482093,0.0806318372488021,#
9.851251602172852,-4.5583271980285645,1.043270707130432,-0.707361102104187,0.0720799788832664,0.1221694499254226,#
10.370492935180664,-4.8574299812316895,2.139183282852173,-0.5595360994338989,0.1356080919504165,0.1429382413625717,#
10.50209903717041,-4.484149932861328,2.3545374870300293,-0.235787034034729,0.1514901220798492,0.2137965410947799,#
10.671989440917969,-3.806980848312378,2.366501569747925,-0.200357899069786,0.1832541674375534,0.4214845895767212,#
11.234301567077637,-4.278366565704346,2.9216365814208984,-0.4068242609500885,0.2406738102436065,0.546097457408905,#
11.234301567077637,-4.278366565704346,2.9216365814208984,-0.8686248064041138,0.5057815313339233,0.8050966858863831,#
11.487940788269045,-5.45563554763794,3.895515203475952,-1.0567656755447388,0.7782194018363953,1.1349540948867798,#
12.083754539489746,-7.322037220001221,4.094119548797607,-1.3304253816604614,0.8808417320251465,1.2717839479446411,#
12.815958023071287,-8.257630348205566,4.553541660308838,-1.2962177991867063,1.147171139717102,1.4477078914642334,#
13.00499153137207,-8.219346046447754,4.340579986572266,-1.2913310527801514,1.2326897382736206,1.5662122964859009,#
13.215559005737305,-8.908478736877441,3.749552965164185,-1.280335783958435,1.4758068323135376,1.91317355632782,#
13.215559005737305,-8.908478736877441,3.749552965164185,-1.2192511558532717,1.7311410903930664,2.3713088035583496,#
13.258630752563477,-9.851251602172852,4.027120590209961,-1.225359559059143,1.8936264514923096,2.5936574935913086,#
13.131810188293455,-10.52841854095459,4.627718925476074,-1.1654964685440063,2.2723517417907715,2.9919300079345703,#
12.964313507080078,-11.935399055480955,4.948357105255127,-0.8942803740501404,2.502030372619629,3.335226058959961,#
12.993027687072754,-12.483355522155762,4.163511276245117,-0.6755970120429993,2.549676418304444,3.448843479156494,#
13.15095329284668,-12.564711570739746,4.462614059448242,-0.4520269632339477,2.637638568878174,3.7273900508880615,#
13.15095329284668,-12.564711570739746,4.462614059448242,-0.2150182276964187,2.71460509300232,3.963176965713501,#
13.064811706542969,-12.67717456817627,4.273581027984619,-0.040315918624401,2.725600242614746,4.054803848266602,#
13.086347579956056,-13.342379570007324,4.965107440948486,0.2699944972991943,2.9577224254608154,4.329685211181641,#
12.650853157043455,-13.299307823181152,4.364508152008057,0.6768187284469604,3.1568586826324463,4.5349297523498535,#
12.473784446716309,-11.57168960571289,2.914458036422729,0.8515210747718811,3.1837358474731445,4.608231544494629,#
12.473784446716309,-11.57168960571289,2.914458036422729,0.7928797006607056,3.2997968196868896,4.8354668617248535,#
10.643275260925291,-10.363314628601074,2.364108800888061,0.5864133238792419,3.408527612686157,4.917320251464844,#
9.24825954437256,-9.238687515258787,2.89052963256836,0.287098228931427,3.6345410346984863,5.105461120605469,#
7.714460372924805,-8.104490280151367,3.1513471603393555,0.1966928243637085,3.8520028591156006,5.203197002410889,#
6.833901405334473,-7.647461414337158,1.3710873126983645,0.3127537965774536,3.842229127883911,5.118899822235107,#
5.759523868560791,-7.685746192932129,0.1914258003234863,0.5754181146621704,3.814130306243897,4.919764041900635,#
5.759523868560791,-7.685746192932129,0.1914258003234863,0.7379034161567688,3.7273900508880615,4.629000663757324,#
4.577469348907471,-6.826723098754883,0.5479563474655151,0.707361102104187,3.678522109985352,4.498279094696045,#
3.168097257614136,-4.898108005523682,1.368694543838501,0.7452336549758911,3.668748617172241,4.183082103729248,#
2.108076810836792,-4.019941806793213,0.9667003750801086,0.5534276366233826,3.5245885848999023,3.908200740814209,#
1.6319050788879397,-3.335594892501831,-0.0526420958340168,0.388498842716217,3.41097092628479,3.7567105293273926,#
1.6319050788879397,-3.335594892501831,-0.0526420958340168,0.1050657257437706,3.066452980041504,3.4598388671875,#
0.5407779216766357,-2.522034883499145,-0.6675975918769836,0.0232121963053941,2.809897422790528,3.1922876834869385,#
-0.7322037816047668,-2.0650060176849365,-0.9978070855140686,0.0452026948332786,2.732930421829224,3.057901382446289,#
-1.7467604875564575,-1.797009825706482,-0.7345964908599854,0.1930277347564697,2.707274913787842,2.6975014209747314,#
-2.4023938179016118,-1.730010747909546,-1.191625714302063,0.287098228931427,2.6681809425354004,2.519134044647217,#
-3.28773832321167,-1.4548362493515017,-0.607776939868927,0.4789042472839355,2.563115119934082,2.144073724746704,#
-3.28773832321167,-1.4548362493515017,-0.607776939868927,0.6132906079292297,2.42017674446106,1.8215465545654297,#
-4.063012599945068,-1.56251323223114,-1.0600204467773438,0.7036960124969482,2.288233757019043,1.698155403137207,#
-4.35972261428833,-0.7369893789291382,-2.1439690589904785,0.7696675062179565,1.980366826057434,1.385401487350464,#
-5.276174068450928,-0.7513462901115417,-2.8761727809906006,0.2712161839008331,1.7030421495437622,1.0958600044250488,#
-5.893522262573242,-1.8616160154342647,-3.129812002182007,-0.0244338884949684,1.5759859085083008,0.9174925684928894,#
-5.848058700561523,-2.426322221755981,-3.0317063331604004,-0.5167768001556396,1.3902883529663086,0.5607577562332153,#
-5.848058700561523,-2.426322221755981,-3.0317063331604004,-0.7366817593574524,1.0824213027954102,0.3506263196468353,#
-6.104090690612793,-2.2683956623077397,-3.2542388439178467,-0.7098045349121094,0.926044464111328,0.1612636744976043,#
-6.27876615524292,-2.014756679534912,-4.060619831085205,-0.6658235192298889,0.7000309228897095,-0.0965138673782348,#
-6.618547439575195,-2.4957141876220703,-4.323830604553223,-0.767224133014679,0.5705313086509705,-0.2846547961235046,#
-6.843472957611084,-3.493520975112915,-4.697111129760742,-0.8344173431396484,0.5241069197654724,-0.3787252902984619,left
-6.843472957611084,-3.493520975112915,-4.697111129760742,-0.9443698525428772,0.4569137394428253,-0.5693095922470093,left
-7.034898281097412,-3.840480089187622,-5.101497650146484,-0.9932376146316528,0.4214845895767212,-0.624285876750946,left
-6.790830135345459,-4.118047714233398,-5.288137912750244,-0.9553651213645936,0.2858764827251434,-0.785549521446228,left
-6.613761901855469,-4.654040336608887,-5.5968122482299805,-0.9455915093421936,0.1270562261343002,-0.9345962405204772,left
-6.374479293823242,-5.352744102478027,-6.003591537475586,-0.929709494113922,0.0574196390807628,-0.9956809878349304,left
-6.611368656158447,-5.764309883117676,-6.436692714691162,-0.998124361038208,-0.0708582773804664,-1.1068552732467651,left
-6.611368656158447,-5.764309883117676,-6.436692714691162,-1.2742273807525637,-0.1722589135169983,-1.2216944694519043,left
-6.348158359527588,-6.338587284088135,-7.927421569824219,-1.4452645778656006,-0.2162399291992187,-1.2864443063735962,left
-5.788238048553467,-7.659425258636475,-8.566305160522461,-1.7653485536575315,-0.310310423374176,-1.3792930841445925,left
-5.170889854431152,-9.533005714416504,-9.135796546936035,-1.9522677659988403,-0.5192201733589172,-1.5185662508010864,left
-5.08953332901001,-11.133803367614746,-9.480363845825195,-2.0634419918060303,-0.6743753552436829,-1.5967546701431274,left
-5.168497085571289,-11.99761199951172,-9.554540634155272,-2.404294729232788,-1.0787562131881714,-1.714037299156189,left
-5.168497085571289,-11.99761199951172,-9.554540634155272,-2.76347279548645,-1.452594757080078,-1.761683464050293,left
-4.223331928253174,-11.90668487548828,-9.822537422180176,-2.9345102310180664,-1.6224102973937988,-1.7690136432647705,left
-3.335594892501831,-11.49512004852295,-10.980663299560549,-3.0676748752593994,-1.9156169891357424,-1.7555750608444214,left
-2.792424201965332,-11.92343521118164,-11.413763999938965,-3.211834669113159,-2.1917200088500977,-1.7372496128082275,left
-2.2923240661621094,-13.744373321533203,-9.293723106384276,-3.248485803604126,-2.3713088035583496,-1.770235300064087,left
-2.2923240661621094,-13.744373321533203,-9.293723106384276,-3.208169937133789,-3.0334672927856445,-1.837428450584412,left
-2.117647886276245,-15.28534984588623,-7.77188777923584,-3.114099264144897,-3.593003273010254,-1.859418988227844,left
-1.117448091506958,-15.175281524658203,-7.482356548309326,-2.820892572402954,-4.753612995147705,-1.7177023887634275,left
0.3541377484798431,-14.505290985107422,-8.039883613586426,-2.465379476547241,-5.718751907348633,-1.5698773860931396,left
1.5720844268798828,-16.285551071166992,-6.611368656158447,-2.473931312561035,-6.173222064971924,-1.4672551155090332,left
2.75174617767334,-18.27398681640625,-2.25403904914856,-2.3566486835479736,-6.959993839263916,-1.3511940240859983,left
2.75174617767334,-18.27398681640625,-2.25403904914856,-1.6615043878555298,-7.756537914276123,-1.0482138395309448,left
4.924428939819336,-18.88894271850586,3.641876220703125,-1.0726476907730105,-8.279423713684082,-0.8270871639251709,left
6.128018856048584,-16.280765533447266,3.1274189949035645,0.123391143977642,-9.236010551452637,-0.342074453830719,left
6.336194515228272,-13.57209014892578,1.2323036193847656,0.9455915093421936,-9.910386085510254,0.3298574984073639,left
10.23888874053955,-13.375877380371094,6.474977493286133,1.0824213027954102,-10.021560668945312,0.680483877658844,left
10.23888874053955,-13.375877380371094,6.474977493286133,1.1813786029815674,-9.582971572875977,1.3328686952590942,left
11.320443153381348,-13.500306129455566,11.885149955749512,2.093984365463257,-8.874388694763184,1.7531315088272097,left
11.882757186889648,-11.547762870788574,11.057233810424805,2.88442063331604,-8.66303539276123,1.6834949254989624,left
8.74337387084961,-1.959721684455872,8.695517539978027,3.01514196395874,-6.2966132164001465,1.7030421495437622,left
6.6352972984313965,5.151747226715088,10.480563163757324,2.597322702407837,-5.238626003265381,1.5087926387786863,left
6.398407459259033,3.297309637069702,14.115260124206545,2.262578248977661,-3.291244983673096,1.086086392402649,left
6.398407459259033,3.297309637069702,14.115260124206545,1.347529053688049,-1.8362067937850952,1.035996913909912,left
5.048855781555176,-1.5026925802230835,13.854442596435549,0.785549521446228,-1.595533013343811,1.1349540948867798,left
3.4719858169555664,-3.321237564086914,11.284551620483398,0.53143709897995,-1.2302463054656982,0.9969027042388916,left
3.2159535884857178,-2.328216552734375,9.166903495788574,0.6365028619766235,-0.98590749502182,0.6401678919792175,left
1.8831514120101929,-1.509871006011963,8.788837432861328,0.6694886088371277,-0.8026533126831055,0.5045598149299622,left
0.3948157429695129,-2.5363922119140625,9.458827018737791,0.5632011890411377,-0.2199050188064575,0.3090887069702148,left
0.3948157429695129,-2.5363922119140625,9.458827018737791,0.3689517080783844,0.2980934381484985,0.2162399291992187,left
-0.8207381367683411,-4.127618789672852,10.193424224853516,0.4923428893089294,0.4508052766323089,0.0965138673782348,left
-1.2562319040298462,-3.4025940895080566,9.477970123291016,0.7098045349121094,0.3823903799057007,-0.1661504507064819,left
-1.098305583000183,-2.524427890777588,8.499305725097656,0.7366817593574524,0.0109952501952648,-0.2663294076919555,#
-1.6941183805465698,-2.935993194580078,8.023134231567383,0.7330166697502136,-0.0647498071193695,-0.2919849753379822,#
-1.6941183805465698,-2.935993194580078,8.023134231567383,0.5949652194976807,0.0867403075098991,-0.393385648727417,#
-2.5459630489349365,-3.933800458908081,7.929814338684082,0.5485408306121826,0.2443388998508453,-0.4642439186573028,#
-2.524427890777588,-4.441079139709473,7.700103282928467,0.6865922808647156,0.4373666048049927,-0.6291726231575012,#
-1.284945726394653,-3.838087558746338,8.054241180419922,0.7488986849784851,0.2480039745569229,-0.7440119385719299,#
-1.0863415002822876,-3.194417953491211,8.60459041595459,0.6963658928871155,0.0610847249627113,-0.790436327457428,#
-2.4598214626312256,-3.6251261234283447,8.286344528198242,0.3970507085323334,-0.0769667476415634,-0.7916580438613892,#
-2.4598214626312256,-3.6251261234283447,8.286344528198242,0.2235700935125351,0.2370087206363678,-0.7440119385719299,#
-2.6153552532196045,-4.785645484924316,7.432106971740723,0.1832541674375534,0.2785463333129883,-0.7452336549758911,#
-1.641476273536682,-5.017749309539795,7.594818592071533,0.1588202863931656,-0.0610847249627113,-0.8197570443153381,#
-1.1868400573730469,-4.644468784332275,8.118846893310547,0.0769667476415634,-0.3909422159194946,-0.8380824327468872,#
-2.5292134284973145,-4.249652862548828,8.382057189941406,0.1710372269153595,-0.3555130958557129,-0.833195686340332,#
-2.8187451362609863,-4.225724697113037,8.085347175598145,0.2932066619396209,-0.0708582773804664,-0.6829272508621216,#
-2.8187451362609863,-4.225724697113037,8.085347175598145,0.1563768982887268,-0.0415376126766204,-0.6658235192298889,#
-1.5649060010910034,-4.058227062225342,8.650053977966309,0.0048867780715227,-0.2321219593286514,-0.7293516397476196,#
-1.191625714302063,-4.130012035369873,8.853443145751953,-0.2956500649452209,-0.4727957546710968,-0.7513421177864075,#
-1.4883356094360352,-4.488935470581055,8.214560508728027,-0.2370087206363678,-0.2516690790653229,-0.6560499668121338,#
-0.5766702890396118,-4.579862117767334,7.781459331512451,-0.2309002727270126,-0.175924003124237,-0.6181774139404297,#
-0.5766702890396118,-4.579862117767334,7.781459331512451,-0.2272351831197738,-0.2773246467113495,-0.7061393857002258,#
-0.3302095234394073,-4.254438400268555,8.135597229003906,-0.2394521236419677,-0.3494046330451965,-0.7708892226219177,#
-1.2370892763137815,-4.244867324829102,7.700103282928467,-0.2382304221391677,-0.21135313808918,-0.6890356540679932,#
-1.4165509939193726,-4.65643310546875,7.319644451141357,-0.2211267054080963,0.0305423624813556,-0.7684457898139954,#
-0.1196411252021789,-4.505684852600098,6.668797016143799,-0.2467822879552841,-0.0305423624813556,-0.8283088207244873,#
0.8159525394439697,-3.622733592987061,6.87697172164917,-0.235787034034729,-0.3530696928501129,-0.8759549260139465,#
0.8159525394439697,-3.622733592987061,6.87697172164917,-0.3946073353290558,-0.554649293422699,-0.8661814332008362,#
0.787238597869873,-3.5294132232666016,6.778866291046143,-0.5326588153839111,-0.4422534108161926,-0.911384105682373,#
0.3469592928886413,-3.806980848312378,6.391229152679443,-0.6352811455726624,-0.2284568697214126,-0.9370396137237548,#
0.6915256977081299,-3.924229145050049,5.824130058288574,-0.7696675062179565,-0.3298574984073639,-0.8942803740501404,#
1.325623631477356,-3.838087558746338,6.192624568939209,-0.8050966858863831,-0.4178195297718048,-0.966360330581665,#
1.325623631477356,-3.838087558746338,6.192624568939209,-0.8747332096099854,-0.5925218462944031,-1.0970816612243652,#
0.2129612118005752,-3.680161237716675,6.197411060333252,-0.8246437907218933,-0.5338804721832275,-1.077534556388855,#
0.4546363055706024,-4.7952165603637695,5.642275810241699,-0.8539644479751587,-0.5082249045372009,-1.281557559967041,#
1.998006820678711,-5.228317260742188,5.185246467590332,-0.7818844318389893,-0.7721109390258789,-1.5637688636779783,#
2.8761727809906006,-4.529613494873047,4.981856822967529,-0.7464553117752075,-0.8845068216323853,-1.5991979837417605,#
2.548356056213379,-4.488935470581055,5.37906551361084,-0.7843278050422668,-0.9675819873809814,-1.6688346862792969,#
2.548356056213379,-4.488935470581055,5.37906551361084,-1.0323318243026731,-0.7721109390258789,-1.803221106529236,#
1.950150489807129,-5.355136871337891,5.355136871337891,-1.1105202436447144,-0.6487197875976562,-1.8337633609771729,#
2.75174617767334,-5.5274200439453125,5.233102798461914,-1.3108781576156616,-0.8209787011146545,-1.9119518995285036,#
4.096512317657471,-5.5274200439453125,4.72582483291626,-1.3707412481307983,-1.0567656755447388,-2.058555126190185,#
4.364508152008057,-5.017749309539795,4.642076015472412,-1.353637456893921,-1.1361758708953855,-2.074437141418457,#
4.493720531463623,-5.778666496276856,4.589433670043945,-1.4977973699569702,-1.1337324380874634,-2.115974903106689,#
4.493720531463623,-5.778666496276856,4.589433670043945,-1.6566176414489746,-0.989572525024414,-2.368865489959717,#
5.084747791290283,-6.9344000816345215,4.386044025421143,-1.6773865222930908,-0.9797989726066588,-2.395742893218994,#
5.855237007141113,-7.049255847930908,4.156332969665527,-1.72014582157135,-1.0286667346954346,-2.516690492630005,#
6.668797016143799,-6.62333345413208,3.7734813690185542,-1.7335845232009888,-1.0494356155395508,-2.745147466659546,#
7.010970115661621,-5.742774486541748,3.428915023803711,-1.817881464958191,-1.060430884361267,-2.786684989929199,#
7.010970115661621,-5.742774486541748,3.428915023803711,-2.080545663833618,-1.067760944366455,-2.852656602859497,#
7.444070816040039,-6.582655429840088,3.005385160446167,-2.1367435455322266,-1.0286667346954346,-2.88442063331604,#
8.7505521774292,-7.953742504119873,2.627319574356079,-2.1110880374908447,-0.9639169573783876,-2.95650053024292,#
9.18126106262207,-7.594818592071533,2.344966173171997,-2.311445951461792,-1.007897973060608,-3.081113338470459,#
9.116654396057127,-6.242874622344971,1.8735800981521609,-2.318776130676269,-0.965138614177704,-3.1373112201690674,#
9.717252731323242,-5.974878311157227,1.5457634925842283,-2.284568548202514,-0.8661814332008362,-3.1947312355041504,#
9.717252731323242,-5.974878311157227,1.5457634925842283,-2.3163328170776367,-0.8405258059501648,-3.13608980178833,#
11.504691123962402,-7.738388061523437,1.6175479888916016,-2.332214832305908,-0.8270871639251709,-3.1092123985290527,#
12.497713088989258,-9.391828536987305,1.5912269353866575,-2.3590919971466064,-0.767224133014679,-3.112877607345581,#
12.66281795501709,-9.784252166748049,1.2323036193847656,-2.313889265060425,-0.7061393857002258,-2.9919300079345703,#
12.239288330078123,-8.34855842590332,0.7824530005455017,-2.343209981918335,-0.6621583700180054,-2.886864185333252,#
11.968899726867676,-7.721638679504394,0.8063812851905823,-2.680397748947144,-0.5986303091049194,-2.5912139415740967,#
11.968899726867676,-7.721638679504394,0.8063812851905823,-3.075005054473877,-0.6145123243331909,-2.1660642623901367,#
12.3278226852417,-9.06879711151123,1.2299107313156128,-3.1788489818573,-0.6255075931549072,-1.9473810195922847,#
12.244073867797852,-10.849058151245115,1.4668002128601074,-3.1519718170166016,-0.6768187284469604,-1.6004197597503662,#
11.353943824768066,-10.987841606140137,1.0336993932724,-2.861208438873291,-0.7195780277252197,-1.281557559967041,#
10.547561645507812,-9.035298347473145,0.5742774605751038,-2.161177635192871,-0.7647807598114014,-1.1703832149505615,#
10.547561645507812,-9.035298347473145,0.5742774605751038,-1.5051275491714478,-0.7525637745857239,-0.9358179569244384,#
9.93260669708252,-7.527820110321045,0.3852444589138031,-1.27544903755188,-0.7513421177864075,-0.7965447902679443,#
9.387042999267578,-6.917649745941162,0.5766702890396118,-1.0628741979599,-0.6670452356338501,-0.546097457408905,#
8.913264274597168,-6.553941249847412,0.9619146585464478,-0.9309312105178832,-0.499673068523407,-0.3555130958557129,#
8.930014610290527,-6.7932233810424805,1.117448091506958,-0.9333745837211608,-0.4337015450000763,-0.2797680497169494,#
8.920442581176758,-6.594619274139404,0.7728817462921143,-0.8625163435935974,-0.365286648273468,-0.2162399291992187,#
8.920442581176758,-6.594619274139404,0.7728817462921143,-0.8380824327468872,-0.3481829464435577,-0.1624853760004043,#
8.652446746826172,-6.293124198913574,0.5431707501411438,-0.8380824327468872,-0.3347443044185638,-0.1331647038459777,#
8.549554824829102,-5.946164608001709,0.7704889178276062,-0.8722898364067078,-0.2956500649452209,-0.1246128380298614,#
8.556733131408691,-5.723631858825684,1.0552347898483276,-0.8747332096099854,-0.2577775418758392,-0.0464243926107883,#
9.09272575378418,-5.333601474761963,0.9786643981933594,-0.8747332096099854,-0.2455605864524841,-0.0061084721237421,#
9.09272575378418,-5.333601474761963,0.9786643981933594,-0.9529216885566713,-0.2418954968452453,0.0891837030649185,#
9.53779125213623,-5.000998973846436,1.06480610370636,-0.98590749502182,-0.0977355539798736,0.1954711079597473,#
9.77707290649414,-4.256831645965576,1.3974084854125977,-1.1630531549453735,0.0818535313010215,0.2333436459302902,#
9.458827018737791,-4.029513359069824,1.813759446144104,-1.4281609058380127,0.4752391576766968,0.2211267054080963,#
8.913264274597168,-3.833301782608032,1.8999011516571045,-1.4367127418518066,0.6413896083831787,0.2370087206363678,#
8.71226692199707,-3.2614171504974365,1.5864413976669312,-1.2595670223236084,0.7794410586357117,0.1820324808359146,#
8.71226692199707,-3.2614171504974365,1.5864413976669312,-0.9443698525428772,0.6291726231575012,0.1478250324726104,#
8.994620323181152,-3.3714869022369385,1.105484127998352,-0.7635590434074402,0.5253286361694336,0.0916270837187767,#
9.26740264892578,-3.785445213317871,0.260817676782608,-0.5448757410049438,0.3249707520008087,0.0439810007810592,#
9.298508644104004,-3.933800458908081,-0.2321037948131561,-0.3848337531089782,0.1600419729948043,-0.0329857505857944,#
9.4061861038208,-3.610769510269165,-0.4666004180908203,-0.3188622593879699,0.123391143977642,-0.0781884491443634,#
9.34157943725586,-3.6059837341308594,-0.4833501875400543,-0.1856975704431533,0.0720799788832664,-0.1062874197959899,#
9.34157943725586,-3.6059837341308594,-0.4833501875400543,-0.0171037223190069,0.0684148892760276,-0.1343863904476165,#
9.298508644104004,-3.2614171504974365,-0.0693918615579605,0.0671931952238082,0.0659715011715889,-0.1331647038459777,#
9.286543846130373,-2.8354949951171875,0.2440679222345352,0.1710372269153595,0.0464243926107883,-0.1441599577665329,#
9.131011009216309,-2.967100143432617,0.5455635190010071,0.1747023165225982,0.0109952501952648,-0.1514901220798492,#
9.28175926208496,-3.177668571472168,0.6795615553855896,0.1820324808359146,0.0048867780715227,-0.1539334952831268,#
9.28175926208496,-3.177668571472168,0.6795615553855896,0.1588202863931656,0.007330167107284,-0.1417165547609329,#
9.674181938171388,-3.25663161277771,0.7824530005455017,0.1075091138482093,0.0158820282667875,-0.1417165547609329,#
10.176674842834473,-3.634697675704956,1.3136597871780396,-0.0989572554826736,0.0647498071193695,-0.1685938388109207,#
10.205389022827148,-3.964907169342041,1.8759729862213133,-0.1771456897258758,0.155155211687088,-0.1380514800548553,#
10.418350219726562,-3.744767427444458,3.050848960876465,-0.1270562261343002,0.2015795856714248,-0.1136175915598869,#
10.76530933380127,-3.658626079559326,3.4815566539764404,0.0366508327424526,0.3042019307613373,-0.0439810007810592,#
10.76530933380127,-3.658626079559326,3.4815566539764404,0.2076880484819412,0.3347443044185638,-0.0439810007810592,#
11.15773105621338,-3.32602334022522,3.3332018852233887,0.235787034034729,0.3127537965774536,0.0525328628718853,#
11.674582481384276,-3.728017807006836,3.3858442306518555,0.1649287492036819,0.471574068069458,0.1539334952831268,#
12.16032600402832,-4.29033088684082,4.35254430770874,-0.0109952501952648,0.7745543122291565,0.2040229737758636,#
12.490534782409668,-4.685146808624268,5.134997367858887,-0.0684148892760276,0.9345962405204772,0.2345653474330902,#
12.851851463317873,-4.8502516746521,4.709074974060059,-0.0146603342145681,1.2387982606887815,0.2956500649452209,#
12.851851463317873,-4.8502516746521,4.709074974060059,0.0769667476415634,1.4868022203445437,0.4178195297718048,#
12.890134811401367,-5.515456199645996,4.88853645324707,0.0989572554826736,1.659061074256897,0.494786262512207,#
13.076775550842283,-6.441478729248047,5.166104316711426,0.1478250324726104,2.114753007888794,0.6450546979904175,#
13.512269973754885,-6.915257453918457,5.7619171142578125,0.2504473626613617,2.4482758045196533,0.8209787011146545,#
13.574482917785645,-6.388835906982422,6.343372344970703,0.3310791850090027,2.648633480072021,0.896723747253418,#
13.574482917785645,-6.388835906982422,6.343372344970703,0.4434750974178314,2.9406187534332275,1.077534556388855,#
13.636695861816406,-5.984449863433838,6.340980052947998,0.4337015450000763,3.037132501602173,1.1703832149505615,#
13.04088306427002,-5.8265228271484375,5.584848403930664,0.2406738102436065,3.199617862701416,1.3805147409439087,#
12.813565254211426,-5.726025104522705,5.635097503662109,-0.0134386392310261,3.4610605239868164,1.5845377445220947,#
11.980863571166992,-5.14456844329834,5.491527557373047,-0.1563768982887268,3.6492013931274414,1.6688346862792969,#
11.26780128479004,-5.39342212677002,5.625525951385498,-0.522885262966156,3.981502294540405,1.887518048286438,#
11.26780128479004,-5.39342212677002,5.625525951385498,-0.8038749694824219,4.324798583984375,2.0182392597198486,#
10.839487075805664,-5.44845724105835,5.498706817626953,-0.8637380003929138,4.4909491539001465,2.0817673206329346,#
9.96131992340088,-5.027320384979248,4.433900356292725,-0.9590301513671876,4.760943412780762,2.108644723892212,#
8.853443145751953,-4.517649173736572,3.598805427551269,-1.115407109260559,4.982069969177246,2.1281917095184326,#
7.238288879394531,-4.386044025421143,3.046063184738159,-1.220472812652588,5.082249164581299,2.115974903106689,#
7.238288879394531,-4.386044025421143,3.046063184738159,-1.4440428018569946,5.250843048095703,2.1220834255218506,#
5.66620397567749,-4.721039295196533,3.268595933914185,-1.593089580535889,5.27161169052124,2.126970052719116,#
5.249853134155273,-5.08953332901001,3.5748770236968994,-1.715259075164795,5.073697090148926,2.0793240070343018,#
4.541577339172363,-5.06799840927124,3.249453067779541,-1.5613255500793457,4.719405651092529,1.974258303642273,#
3.373879909515381,-5.091926097869873,2.522034883499145,-1.359745979309082,4.543481349945068,1.9021782875061035,#
2.416750907897949,-4.7234320640563965,1.8592231273651123,-1.0274450778961182,4.225841522216797,1.705485463142395,#
2.416750907897949,-4.7234320640563965,1.8592231273651123,-0.9956809878349304,3.928969383239746,1.571099042892456,#
1.6079767942428589,-4.582255363464356,1.935793399810791,-1.0396620035171509,3.75426721572876,1.510014295578003,#
0.5000999569892883,-4.730610370635986,2.031506299972534,-1.0323318243026731,3.4158577919006348,1.3487507104873655,#
-0.4115655124187469,-4.78803825378418,0.9451649785041808,-0.8539644479751587,3.022472381591797,1.225359559059143,#
-0.8733802437782288,-4.687539577484131,1.3710873126983645,-0.7415685653686523,2.9112977981567383,1.172826647758484,#
-1.06480610370636,-5.151747226715088,1.5553346872329712,-0.6621583700180054,2.6694023609161377,0.9749122262001038,#
-1.06480610370636,-5.151747226715088,1.5553346872329712,-0.652384877204895,2.4714879989624023,0.7806627750396729,#
-1.5337992906570437,-5.663811206817627,0.8662018179893494,-0.6597149968147278,2.381082773208618,0.6817055344581604,#
-2.603391170501709,-5.546562671661377,0.969093143939972,-0.9480348825454712,2.1648426055908203,0.4825693070888519,#
-3.6681969165802,-5.807380676269531,1.1150553226470947,-1.326760172843933,1.90339994430542,0.3323009014129638,#
-3.5700912475585938,-6.228517532348633,0.2129612118005752,-1.4196090698242188,1.6786081790924072,0.2858764827251434,#
-3.5700912475585938,-6.228517532348633,0.2129612118005752,-1.3719629049301147,1.3255385160446167,0.2162399291992187,#
-3.486342430114746,-6.398407459259033,-0.5718846321105957,-1.3072130680084229,1.187487006187439,0.1417165547609329,#
-3.297309637069702,-6.470191955566406,-0.82791668176651,-1.1227372884750366,1.0152281522750854,0.0574196390807628,#
-3.206382274627685,-6.532405853271484,-0.8590233325958252,-0.8380824327468872,0.8698464632034302,-0.0916270837187767,#
-3.5030922889709477,-6.419942855834961,-1.1748759746551514,-0.7220214009284973,0.7684457898139954,-0.1808107793331146,#
-3.345165967941284,-6.941578388214111,-2.3186452388763428,-0.6670452356338501,0.5289937257766724,-0.342074453830719,#
-3.345165967941284,-6.941578388214111,-2.3186452388763428,-0.8759549260139465,0.1747023165225982,-0.448361873626709,#
-3.1752755641937256,-7.276573657989502,-3.2997026443481445,-0.98590749502182,0.0525328628718853,-0.5216635465621948,#
-3.0005996227264404,-7.247859954833984,-3.7734813690185542,-1.16427481174469,-0.178367406129837,-0.6511631608009338,#
-2.8283162117004395,-7.161717891693115,-3.7710886001586914,-1.227802872657776,-0.4031591713428497,-0.785549521446228,#
-2.366501569747925,-8.11406135559082,-4.254438400268555,-1.2045906782150269,-0.52655029296875,-0.8588511943817139,#
-2.366501569747925,-8.11406135559082,-4.254438400268555,-1.1496145725250244,-0.7476770281791687,-0.9810206294059752,#
-1.6079767942428589,-8.997013092041016,-4.912464618682861,-1.3792930841445925,-0.9309312105178832,-1.2216944694519043,left
-1.490728497505188,-9.535398483276367,-5.931807041168213,-1.5552170276641846,-1.0005677938461304,-1.2595670223236084,left
-0.6508477926254272,-9.884750366210938,-6.273981094360352,-1.9473810195922847,-1.1300673484802246,-1.3328686952590942,left
-0.2919243574142456,-10.767702102661133,-5.386244297027588,-2.1538474559783936,-1.241241693496704,-1.385401487350464,left
0.1244267746806144,-11.96172046661377,-5.201996326446533,-2.3566486835479736,-1.4709200859069824,-1.502684235572815,left
0.1244267746806144,-11.96172046661377,-5.201996326446533,-2.203936815261841,-1.839871883392334,-1.5454435348510742,left
0.5096712112426758,-12.966705322265623,-6.041877269744873,-2.1538474559783936,-2.039008140563965,-1.5747642517089844,left
1.3304094076156616,-13.26102352142334,-7.319644451141357,-2.065885305404663,-2.3798608779907227,-1.549108624458313,left
2.971885919570923,-13.473983764648438,-7.594818592071533,-2.114753007888794,-2.690171241760254,-1.5222313404083252,left
3.452842950820923,-14.754144668579102,-7.17368221282959,-2.142852067947388,-2.8709819316864014,-1.5136795043945312,left
4.350151538848877,-15.553346633911133,-7.331608772277832,-2.0793240070343018,-3.385315418243408,-1.594311237335205,left
4.350151538848877,-15.553346633911133,-7.331608772277832,-1.485580563545227,-4.183082103729248,-1.5185662508010864,left
6.041877269744873,-15.007783889770508,-7.5804619789123535,-1.0188932418823242,-4.637552261352539,-1.437934398651123,left
7.518248558044434,-16.137195587158203,-6.798008918762207,-0.2724378705024719,-5.430431842803955,-1.1764918565750122,left
8.889336585998535,-16.350156784057617,-6.192624568939209,0.2015795856714248,-6.217203617095947,-0.9590301513671876,left
9.882357597351074,-16.000804901123047,-5.453242778778076,0.0867403075098991,-6.575159549713135,-0.8405258059501648,left
9.882357597351074,-16.000804901123047,-5.453242778778076,-0.2443388998508453,-7.481657028198242,-0.6597149968147278,left
11.2366943359375,-15.704095840454102,-4.316651821136475,-0.1502684205770492,-7.956896305084228,-0.5241069197654724,left
12.026326179504396,-16.472190856933594,1.4380863904953003,0.8209787011146545,-8.820633888244629,-0.1624853760004043,left
10.662418365478516,-15.211173057556152,3.3930225372314453,2.37741756439209,-9.64772129058838,0.730573296546936,left
11.837292671203612,-13.41416358947754,-0.8327022790908813,3.023693799972534,-9.453471183776855,0.9553651213645936,left
14.53400421142578,-9.82971477508545,1.6701902151107788,3.3950889110565186,-9.596409797668455,0.8698464632034302,left
14.53400421142578,-9.82971477508545,1.6701902151107788,3.623545646667481,-8.76688003540039,1.6334055662155151,left
14.37847137451172,-8.063812255859375,12.411571502685549,3.4207446575164795,-8.11938190460205,1.6431790590286257,left
11.69851016998291,-7.724031925201416,12.94756317138672,3.3682117462158203,-7.646585941314697,1.6236319541931152,left
10.939985275268556,-5.3694939613342285,6.946363925933838,3.7225029468536377,-6.984427452087402,1.5845377445220947,left
9.789037704467772,-3.081955671310425,3.7734813690185542,3.606442213058472,-6.332042217254639,1.751909852027893,left
9.789037704467772,-3.081955671310425,3.7734813690185542,2.912519693374634,-4.550811767578125,1.5161229372024536,left
8.073383331298828,-2.715853452682495,5.264209270477295,2.791571855545044,-2.3126676082611084,1.3915101289749146,left
6.659225463867188,-1.0911270380020142,8.15234661102295,1.977923393249512,-1.5991979837417605,1.2693406343460083,left
5.190032482147217,-2.675175428390503,9.523433685302734,0.7892146706581116,-0.7403469085693359,0.9211575984954834,left
3.759124279022217,-4.450649738311768,9.322437286376951,0.5143333673477173,-0.5216635465621948,0.8686248064041138,left
2.84506630897522,-5.881557941436768,8.073383331298828,0.31641885638237,-0.5937435030937195,0.8576295375823975,left
2.84506630897522,-5.881557941436768,8.073383331298828,0.680483877658844,-0.7525637745857239,0.5937435030937195,left
2.4502503871917725,-5.888736724853516,6.592226982116699,0.9883508682250975,-0.7769976854324341,0.4789042472839355,left
1.636690616607666,-4.520041942596436,6.532405853271484,1.2082558870315552,-0.5448757410049438,0.3555130958557129,left
0.5072783827781677,-4.077369689941406,7.57806921005249,1.189930438995361,-0.0720799788832664,0.0977355539798736,left
0.0837487876415252,-5.158926010131836,7.628318786621094,1.0030112266540527,0.1270562261343002,0.0415376126766204,left
0.4785645008087158,-6.410372257232666,7.738388061523437,0.7110261917114258,0.3591781854629516,-0.0195471122860908,left
0.4785645008087158,-6.410372257232666,7.738388061523437,0.5558710098266602,0.3469612300395965,-0.2223483920097351,left
-0.0789631456136703,-6.654439926147461,7.448856830596924,0.4764608442783355,0.3408527672290802,-0.2858764827251434,left
-0.605384111404419,-7.39142894744873,6.752545356750488,0.5986303091049194,0.4434750974178314,-0.3665083348751068,left
-0.0669990330934524,-7.393822193145752,6.465407371520996,0.6560499668121338,0.4092676639556885,-0.3689517080783844,#
0.5551348924636841,-6.776473522186279,6.357729434967041,0.5913001298904419,0.3542913794517517,-0.365286648273468,#
0.5551348924636841,-6.776473522186279,6.357729434967041,0.3579564988613128,0.3298574984073639,-0.4239279925823211,#
0.0741775035858154,-6.948756694793701,6.467799663543701,0.3225273489952087,0.365286648273468,-0.4251496791839599,#
-0.638883650302887,-6.8482584953308105,6.230910301208496,0.42270627617836,0.4569137394428253,-0.3958290219306946,#
-0.1124626696109771,-6.491727352142334,6.154339790344238,0.4141544103622436,0.333522617816925,-0.4605787992477417,#
0.3948157429695129,-6.345765590667725,6.029913425445557,0.4019374847412109,0.2247917801141739,-0.4972296357154846,#
0.4426721632480621,-6.477370738983154,6.104090690612793,0.1954711079597473,0.1246128380298614,-0.5693095922470093,#
0.4426721632480621,-6.477370738983154,6.104090690612793,0.1197260618209838,0.1075091138482093,-0.5876350998878479,#
0.3349951505661011,-6.510870456695557,6.070591449737549,0.1453816443681717,0.0940704718232154,-0.5693095922470093,#
0.0358923412859439,-6.541977405548096,6.135197162628174,0.2993151545524597,0.0366508327424526,-0.5644228458404541,#
-0.0095712905749678,-5.938986301422119,5.821736812591553,0.4703523814678192,0.0244338884949684,-0.7159129977226257,#
0.6317051649093628,-5.235496044158936,5.769095420837402,0.4471401870250702,-0.0439810007810592,-0.7574505805969238,#
1.191625714302063,-5.108676433563232,5.644669055938721,0.2406738102436065,-0.2480039745569229,-0.8148701786994934,#
1.191625714302063,-5.108676433563232,5.644669055938721,0.1575985848903656,-0.3542913794517517,-0.9211575984954834,#
1.7347965240478516,-5.513063907623291,5.812166690826416,0.1539334952831268,-0.3909422159194946,-0.9626952409744264,#
1.801795244216919,-5.108676433563232,5.86720085144043,0.235787034034729,-0.4618005454540252,-1.142284274101257,#
1.1485549211502075,-4.247260093688965,5.584848403930664,0.2846547961235046,-0.549762487411499,-1.266897201538086,#
1.3663017749786377,-4.060619831085205,4.907679080963135,0.2553341388702392,-0.5644228458404541,-1.360967755317688,#
1.3663017749786377,-4.060619831085205,4.907679080963135,0.1710372269153595,-0.7134696245193481,-1.557660460472107,#
2.3880369663238525,-3.431307554244995,4.711467742919922,0.007330167107284,-0.8588511943817139,-1.6285187005996704,#
3.0556347370147705,-3.9553356170654297,4.505684852600098,-0.1478250324726104,-0.939483106136322,-1.7372496128082275,#
3.6059837341308594,-4.950750350952148,4.53200626373291,-0.0830752253532409,-0.7831061482429504,-1.7555750608444214,#
4.218546390533447,-5.041677951812744,4.553541660308838,-0.1050657257437706,-0.7330166697502136,-1.7848955392837524,#
4.587040901184082,-4.438685894012451,4.651647090911865,-0.1331647038459777,-0.6768187284469604,-1.9522677659988403,#
4.587040901184082,-4.438685894012451,4.651647090911865,-0.2321219593286514,-0.6927007436752319,-2.062220335006714,#
4.689932346343994,-3.7184462547302246,4.465007305145264,-0.388498842716217,-0.6914790868759155,-2.0842106342315674,#
5.158926010131836,-4.027120590209961,3.9553356170654297,-0.7281299233436584,-0.6682668924331665,-2.090319395065308,#
5.946164608001709,-4.527220726013184,3.672982692718506,-1.1520578861236572,-0.7794410586357117,-2.120861768722534,#
6.4079790115356445,-5.237888813018799,3.6394832134246826,-1.3316470384597778,-0.8002098798751831,-2.137965440750122,#
6.4079790115356445,-5.237888813018799,3.6394832134246826,-1.6028631925582886,-0.7879929542541504,-2.2173755168914795,#
5.965306758880615,-5.149354457855225,3.5030922889709477,-1.7409145832061768,-0.758672297000885,-2.241809368133545,#
6.422336101531982,-5.5274200439453125,3.1250264644622803,-1.91317355632782,-0.712247908115387,-2.3334364891052246,#
7.441678524017334,-5.860023021697998,2.8833510875701904,-2.025569438934326,-0.790436327457428,-2.467822790145874,#
8.915657043457031,-7.3675007820129395,3.103491306304932,-2.059777021408081,-0.8063183426856995,-2.5386812686920166,#
8.999405860900879,-7.628318786621094,3.034099102020264,-1.97181499004364,-0.7806627750396729,-2.637638568878174,#
8.999405860900879,-7.628318786621094,3.034099102020264,-1.951046109199524,-0.7501204013824463,-2.715826749801636,#
9.05683422088623,-6.632904052734375,2.6536402702331543,-1.9156169891357424,-0.7403469085693359,-2.7524778842926025,#
9.329615592956545,-5.288137912750244,2.4023938179016118,-1.9339423179626465,-0.7452336549758911,-2.736595630645752,#
10.33938694000244,-6.348158359527588,2.249253273010254,-2.178281307220459,-0.7501204013824463,-2.6193130016326904,#
11.700902938842772,-7.94177770614624,2.416750907897949,-2.212488889694214,-0.7354600429534912,-2.5899922847747803,#
11.767902374267578,-7.83410120010376,2.242074966430664,-2.260134696960449,-0.7452336549758911,-2.4666011333465576,#
11.767902374267578,-7.83410120010376,2.242074966430664,-2.319998025894165,-0.7745543122291565,-2.42995023727417,#
11.196017265319824,-7.039684295654297,1.940579175949097,-2.2027151584625244,-0.7476770281791687,-2.406738042831421,#
10.935199737548828,-5.8265228271484375,1.557727575302124,-2.131856918334961,-0.6584933400154114,-2.19782829284668,#
11.234301567077637,-6.144768238067627,1.521835207939148,-2.2149322032928467,-0.6035171151161194,-1.987696886062622,#
11.799009323120115,-7.2813591957092285,1.6677974462509155,-2.2112669944763184,-0.5986303091049194,-1.92294716835022,#
11.799009323120115,-7.2813591957092285,1.6677974462509155,-2.158734083175659,-0.5583143830299377,-1.775122046470642,#
11.485548973083496,-7.202396392822266,1.5481561422348022,-2.1281917095184326,-0.5436540246009827,-1.7323628664016724,#
10.97587776184082,-6.766902446746826,1.2179466485977173,-1.9913619756698608,-0.4960079491138458,-1.7079288959503174,#
10.73180866241455,-5.852844715118408,0.9571290016174316,-1.830098390579224,-0.4556920528411865,-1.5210096836090088,#
10.384849548339844,-5.730810642242432,0.7274181246757507,-1.8814095258712769,-0.4263713657855987,-1.401283621788025,#
10.413564682006836,-5.802595138549805,0.7034898400306702,-1.910730242729187,-0.3481829464435577,-1.1850436925888062,#
10.413564682006836,-5.802595138549805,0.7034898400306702,-2.036564826965332,-0.258999228477478,-0.965138614177704,#
10.449455261230469,-6.704688549041748,0.7034898400306702,-2.0634419918060303,-0.2150182276964187,-0.891836941242218,#
10.222138404846191,-6.819544315338135,0.7034898400306702,-1.996248722076416,-0.1319430023431778,-0.7721109390258789,#
9.78664493560791,-6.577868938446045,0.4498506784439087,-1.847202181816101,-0.0708582773804664,-0.6743753552436829,#
9.327221870422363,-5.936593055725098,0.3876372575759887,-1.7005987167358398,-0.0464243926107883,-0.6365028619766235,#
9.327221870422363,-5.936593055725098,0.3876372575759887,-1.5674339532852173,-0.0171037223190069,-0.4862344264984131,#
