accX,accY,accZ,gyrX,gyrY,gyrZ,annotation
9.329615592956545,-2.988635540008545,0.12921242415905,0.0195471122860908,-0.0109952501952648,-0.0183254163712263,#
9.274580955505373,-2.926422357559204,0.1244267746806144,0.0085518611595034,-0.0097735561430454,-0.0232121963053941,#
9.26740264892578,-3.012563943862915,0.1722832471132278,-0.0061084721237421,-0.007330167107284,-0.0244338884949684,#
9.33440113067627,-2.9934213161468506,0.1411765366792678,-0.0146603342145681,-0.0109952501952648,-0.0219905003905296,#
9.34157943725586,-3.0484561920166016,0.2129612118005752,-0.0207688063383102,-0.0134386392310261,-0.0183254163712263,#
9.34157943725586,-3.0484561920166016,0.2129612118005752,-0.0146603342145681,-0.0097735561430454,-0.0158820282667875,#
9.305686950683594,-3.0005996227264404,0.2560320198535919,-0.0085518611595034,-0.0097735561430454,-0.0146603342145681,#
9.422935485839844,-2.998206615447998,0.2225324809551239,0.0061084721237421,-0.0122169442474842,-0.0109952501952648,#
9.351150512695312,-3.0269205570220947,0.1866401582956314,0.0061084721237421,-0.0109952501952648,-0.0097735561430454,#
9.34157943725586,-3.019742012023926,0.2201396822929382,0.0061084721237421,-0.007330167107284,-0.007330167107284,#
9.34157943725586,-3.019742012023926,0.2201396822929382,-0.0024433890357613,-0.007330167107284,-0.0085518611595034,#
9.353544235229492,-3.036492109298706,0.2057827562093734,0.0012216945178806,-0.0097735561430454,-0.0085518611595034,#
9.26740264892578,-3.0077781677246094,0.1842473447322845,0.0085518611595034,-0.0061084721237421,-0.0109952501952648,#
9.365508079528809,-3.0652055740356445,0.1459621787071228,0.007330167107284,-0.0085518611595034,-0.0085518611595034,#
9.32004451751709,-3.0556347370147705,0.1627119481563568,0.007330167107284,-0.0122169442474842,-0.007330167107284,#
9.32004451751709,-3.0556347370147705,0.1627119481563568,0.0158820282667875,-0.0134386392310261,-0.0085518611595034,#
9.346364974975586,-2.940778970718384,0.1220339611172676,0.0219905003905296,-0.0097735561430454,-0.0122169442474842,#
9.28175926208496,-2.995814085006714,0.1052841916680336,0.0219905003905296,-0.0109952501952648,-0.0134386392310261,#
9.370293617248535,-2.967100143432617,0.12921242415905,0.0158820282667875,-0.0122169442474842,-0.0171037223190069,#
9.35832977294922,-2.995814085006714,0.1100698411464691,0.0134386392310261,-0.0122169442474842,-0.0183254163712263,#
9.375079154968262,-2.981456995010376,0.1339980661869049,0.0109952501952648,-0.0134386392310261,-0.0134386392310261,#
9.375079154968262,-2.981456995010376,0.1339980661869049,0.0146603342145681,-0.0158820282667875,-0.0109952501952648,#
9.382257461547852,-2.943171739578247,0.2009970992803573,0.0146603342145681,-0.0158820282667875,-0.0085518611595034,#
9.42772102355957,-2.9838497638702397,0.1579262912273407,0.0146603342145681,-0.0134386392310261,-0.007330167107284,#
9.372685432434082,-2.919243574142456,0.1483550071716308,0.0158820282667875,-0.0109952501952648,-0.0061084721237421,#
9.34875774383545,-2.931207656860352,0.1603191047906875,0.0146603342145681,-0.0097735561430454,-0.0048867780715227,#
9.34875774383545,-2.931207656860352,0.1603191047906875,0.007330167107284,-0.0097735561430454,-0.0012216945178806,#
9.408578872680664,-2.9479575157165527,0.1579262912273407,0.0012216945178806,-0.0109952501952648,-0.0012216945178806,#
9.35832977294922,-3.0101709365844727,0.1627119481563568,-0.0048867780715227,-0.007330167107284,-0.0024433890357613,#
9.327221870422363,-2.974278450012207,0.1842473447322845,-0.0048867780715227,-0.007330167107284,-0.0012216945178806,#
9.327221870422363,-2.950350284576416,0.1674975752830505,-0.0048867780715227,-0.0097735561430454,-0.0012216945178806,#
9.332008361816406,-2.8977081775665283,0.1794617027044296,-0.003665083553642,-0.0097735561430454,-0.0048867780715227,#
9.332008361816406,-2.8977081775665283,0.1794617027044296,-0.0048867780715227,-0.007330167107284,-0.0097735561430454,#
9.34157943725586,-2.9072794914245605,0.1746760606765747,-0.0085518611595034,-0.0061084721237421,-0.0109952501952648,#
9.336793899536133,-2.8929224014282227,0.1316052377223968,-0.0244338884949684,-0.0061084721237421,-0.0109952501952648,#
9.375079154968262,-2.9623143672943115,0.1962114423513412,-0.0378725305199623,-0.0109952501952648,-0.0085518611595034,#
9.32004451751709,-2.964707374572754,0.0837487876415252,-0.0366508327424526,-0.0061084721237421,-0.0109952501952648,#
9.32004451751709,-2.964707374572754,0.0837487876415252,-0.0293206684291362,-0.003665083553642,-0.0085518611595034,#
9.29611587524414,-3.0005996227264404,0.0957129001617431,-0.0256555844098329,-0.0048867780715227,-0.0061084721237421,#
9.430113792419434,-2.974278450012207,0.1435693651437759,-0.0256555844098329,-0.0085518611595034,-0.003665083553642,#
9.399007797241213,-2.9168508052825928,0.138783723115921,-0.0329857505857944,-0.0097735561430454,-0.003665083553642,#
9.33440113067627,-2.971885919570923,0.114855483174324,-0.0366508327424526,-0.007330167107284,-0.0048867780715227,#
9.33440113067627,-2.971885919570923,0.114855483174324,-0.040315918624401,-0.003665083553642,-0.007330167107284,#
9.377471923828123,-3.0245277881622314,0.1938186287879943,-0.0427593067288398,-0.0024433890357613,-0.0085518611595034,#
9.315258979797363,-2.935993194580078,0.1483550071716308,-0.0415376126766204,-0.0012216945178806,-0.0085518611595034,#
9.363115310668944,-2.9527432918548584,0.1579262912273407,-0.0366508327424526,-0.0024433890357613,-0.007330167107284,#
9.410971641540527,-2.964707374572754,0.1651047617197036,-0.0342074446380138,-0.0024433890357613,-0.0061084721237421,#
9.355937004089355,-3.0317063331604004,0.1435693651437759,-0.0293206684291362,-0.0048867780715227,-0.0012216945178806,#
9.355937004089355,-3.0317063331604004,0.1435693651437759,-0.0122169442474842,-0.0085518611595034,-0.0012216945178806,#
9.308080673217772,-2.9862425327301025,0.1698903888463974,-0.0048867780715227,-0.007330167107284,0.0012216945178806,#
9.384650230407717,-2.9862425327301025,0.1459621787071228,0.0012216945178806,-0.0061084721237421,0.0012216945178806,#
9.372685432434082,-2.974278450012207,0.1770688742399215,-0.003665083553642,-0.003665083553642,0.0012216945178806,#
9.33440113067627,-2.9168508052825928,0.1100698411464691,-0.0061084721237421,-0.0048867780715227,-0.0012216945178806,#
9.33440113067627,-2.9168508052825928,0.1100698411464691,-0.0048867780715227,-0.007330167107284,-0.0061084721237421,#
9.300901412963867,-2.9790639877319336,0.0693918615579605,-0.0048867780715227,-0.0048867780715227,-0.007330167107284,#
9.33440113067627,-3.0077781677246094,0.138783723115921,-0.0097735561430454,-0.003665083553642,-0.0024433890357613,#
9.375079154968262,-2.9766712188720703,0.0861416235566139,-0.0061084721237421,-0.0109952501952648,-0.0012216945178806,#
9.408578872680664,-3.005385160446167,0.1339980661869049,-0.0024433890357613,-0.0097735561430454,-0.0024433890357613,#
9.346364974975586,-2.998206615447998,0.0311066936701536,0.0012216945178806,-0.0048867780715227,-0.003665083553642,#
9.346364974975586,-2.998206615447998,0.0311066936701536,0.0024433890357613,-0.007330167107284,-0.0085518611595034,#
9.372685432434082,-2.8522443771362305,0.1100698411464691,-0.003665083553642,-0.0085518611595034,-0.0061084721237421,#
9.31047248840332,-2.945564746856689,0.1507478207349777,-0.0085518611595034,-0.007330167107284,-0.003665083553642,#
9.387042999267578,-2.9240293502807617,0.1004985496401786,-0.0097735561430454,-0.007330167107284,-0.0012216945178806,#
9.387042999267578,-2.950350284576416,0.1459621787071228,-0.0048867780715227,-0.007330167107284,-0.0012216945178806,#
9.387042999267578,-2.950350284576416,0.1459621787071228,-0.0012216945178806,-0.0061084721237421,-0.0012216945178806,#
9.42772102355957,-2.9216365814208984,0.0933200791478157,0.0085518611595034,-0.0061084721237421,-0.0012216945178806,#
9.375079154968262,-2.9838497638702397,0.1363908797502517,0.0024433890357613,-0.0061084721237421,-0.0012216945178806,#
9.408578872680664,-2.914458036422729,0.0861416235566139,-0.0048867780715227,-0.0024433890357613,0.0012216945178806,#
9.377471923828123,-2.914458036422729,0.1531406491994857,-0.0158820282667875,-0.0024433890357613,0.0024433890357613,#
9.353544235229492,-2.926422357559204,0.114855483174324,-0.0146603342145681,-0.0012216945178806,0.0012216945178806,#
9.353544235229492,-2.926422357559204,0.114855483174324,-0.0122169442474842,-0.0024433890357613,0.0012216945178806,#
9.379864692687988,-2.974278450012207,0.1244267746806144,-0.0085518611595034,-0.0012216945178806,-0.0012216945178806,#
9.375079154968262,-2.9240293502807617,0.12921242415905,-0.0109952501952648,-0.0012216945178806,-0.0012216945178806,#
9.463613510131836,-2.926422357559204,0.0981057211756706,-0.0134386392310261,-0.0024433890357613,-0.003665083553642,#
9.42772102355957,-2.914458036422729,0.1196411252021789,-0.0158820282667875,-0.0024433890357613,-0.0061084721237421,#
9.42772102355957,-2.914458036422729,0.1196411252021789,-0.0183254163712263,-0.0012216945178806,-0.0048867780715227,#
9.42054271697998,-3.0077781677246094,0.0717846825718879,-0.0183254163712263,-0.0012216945178806,-0.0048867780715227,#
9.375079154968262,-2.914458036422729,0.0741775035858154,-0.0171037223190069,-0.0012216945178806,-0.0024433890357613,#
9.394222259521484,-2.945564746856689,0.0311066936701536,-0.0183254163712263,-0.003665083553642,-0.0024433890357613,#
9.394222259521484,-2.9288151264190674,0.1722832471132278,-0.0146603342145681,-0.003665083553642,-0.003665083553642,#
9.394222259521484,-2.9288151264190674,0.1722832471132278,-0.0134386392310261,-0.0012216945178806,-0.003665083553642,#
9.332008361816406,-2.9551358222961426,0.1004985496401786,-0.0158820282667875,-0.0012216945178806,-0.0024433890357613,#
9.332008361816406,-2.9240293502807617,0.0909272655844688,-0.0195471122860908,-0.0024433890357613,-0.0024433890357613,#
9.42772102355957,-2.9288151264190674,0.1028913781046867,-0.0207688063383102,-0.0061084721237421,-0.0012216945178806,#
9.408578872680664,-2.926422357559204,0.0837487876415252,-0.0232121963053941,-0.0061084721237421,-0.007330167107284,#
9.382257461547852,-2.935993194580078,0.0813559740781784,-0.0280989725142717,0.0048867780715227,-0.0097735561430454,#
9.382257461547852,-2.935993194580078,0.0813559740781784,-0.0305423624813556,0.0048867780715227,-0.0134386392310261,#
9.336793899536133,-2.940778970718384,0.1076770275831222,-0.0329857505857944,0.0012216945178806,-0.0146603342145681,#
9.377471923828123,-2.9862425327301025,0.1483550071716308,-0.0366508327424526,0.0024433890357613,-0.0134386392310261,#
9.34157943725586,-2.950350284576416,0.1651047617197036,-0.0390942245721817,0.0048867780715227,-0.0109952501952648,#
9.360722541809082,-3.0005996227264404,0.0933200791478157,-0.040315918624401,0.0024433890357613,-0.003665083553642,#
9.360722541809082,-3.0005996227264404,0.0933200791478157,-0.0354291386902332,-0.0012216945178806,-0.0012216945178806,#
9.315258979797363,-3.089133977890014,0.1076770275831222,-0.0122169442474842,-0.0024433890357613,0.0024433890357613,#
9.363115310668944,-2.981456995010376,0.1459621787071228,0.0024433890357613,-0.0024433890357613,0.0048867780715227,#
9.425328254699709,-2.967100143432617,0.1339980661869049,0.0024433890357613,-0.003665083553642,0.0024433890357613,#
9.379864692687988,-2.878565788269043,0.1244267746806144,-0.0122169442474842,-0.0024433890357613,-0.0024433890357613,#
9.391828536987305,-2.9383859634399414,0.1674975752830505,-0.0268772784620523,0.0012216945178806,-0.0085518611595034,#
9.391828536987305,-2.9383859634399414,0.1674975752830505,-0.031764056533575,0.0012216945178806,-0.0109952501952648,#
9.38943576812744,-2.964707374572754,0.0885344371199607,-0.0342074446380138,0.0024433890357613,-0.0134386392310261,#
9.3128662109375,-3.072384119033813,0.0717846825718879,-0.0232121963053941,-0.003665083553642,-0.0134386392310261,#
9.439685821533203,-3.005385160446167,0.0741775035858154,-0.0122169442474842,-0.0085518611595034,-0.0134386392310261,#
9.372685432434082,-3.0101709365844727,0.0669990330934524,0.003665083553642,-0.0122169442474842,-0.0158820282667875,#
9.372685432434082,-3.0101709365844727,0.0669990330934524,0.0109952501952648,-0.0122169442474842,-0.0158820282667875,#
9.363115310668944,-2.940778970718384,0.1028913781046867,0.0183254163712263,-0.0122169442474842,-0.0219905003905296,#
9.434900283813477,-2.900100946426392,0.1555334776639938,0.0134386392310261,-0.0097735561430454,-0.0244338884949684,#
9.382257461547852,-2.878565788269043,0.1363908797502517,0.0097735561430454,-0.0109952501952648,-0.0232121963053941,#
9.55214786529541,-2.9216365814208984,0.1746760606765747,-0.0048867780715227,0.0012216945178806,-0.0256555844098329,#
9.55214786529541,-2.9216365814208984,0.1746760606765747,-0.0232121963053941,0.0109952501952648,-0.040315918624401,#
9.533005714416504,-3.012563943862915,0.3613162040710449,-0.0525328628718853,0.0598630309104919,-0.0354291386902332,#
9.298508644104004,-2.8977081775665283,0.1483550071716308,-0.0195471122860908,0.0513111688196659,-0.0207688063383102,#
9.265008926391602,-2.9168508052825928,0.0789631456136703,0.0061084721237421,0.0305423624813556,-0.0195471122860908,#
9.4061861038208,-2.9551358222961426,0.1986042857170105,0.0195471122860908,0.0122169442474842,0.0012216945178806,#
9.394222259521484,-3.060420036315918,0.2536391913890838,0.0183254163712263,0.0244338884949684,0.0158820282667875,#
9.394222259521484,-3.060420036315918,0.2536391913890838,0.0232121963053941,0.031764056533575,0.0171037223190069,#
9.375079154968262,-2.9072794914245605,0.2225324809551239,0.0171037223190069,0.0439810007810592,0.0134386392310261,#
9.324830055236816,-2.933600425720215,0.1842473447322845,0.0329857505857944,0.0329857505857944,0.0134386392310261,#
9.315258979797363,-2.933600425720215,0.1579262912273407,0.0476460866630077,0.0207688063383102,0.0158820282667875,#
9.353544235229492,-2.959921598434448,0.064606212079525,0.0745233595371246,0.0061084721237421,0.0146603342145681,#
9.353544235229492,-2.959921598434448,0.064606212079525,0.0757450610399246,0.0024433890357613,0.0109952501952648,#
9.588040351867676,-2.9383859634399414,0.2105683833360672,0.0561979450285434,0.0207688063383102,0.0122169442474842,#
9.556933403015137,-2.8761727809906006,0.2344966232776641,0.0280989725142717,0.0623064190149307,0.007330167107284,#
9.28175926208496,-2.8211379051208496,0.1531406491994857,0.0232121963053941,0.0684148892760276,0.0048867780715227,#
9.255437850952148,-2.888136863708496,0.1555334776639938,0.031764056533575,0.0476460866630077,0.0146603342145681,#
9.477970123291016,-3.1513471603393555,0.4067798554897308,0.0354291386902332,0.040315918624401,0.0232121963053941,#
9.477970123291016,-3.1513471603393555,0.4067798554897308,0.0244338884949684,0.0561979450285434,0.0305423624813556,#
9.55214786529541,-3.3858442306518555,0.6029912829399109,-0.0293206684291362,0.1026223376393318,0.0867403075098991,#
9.533005714416504,-3.651447057723999,0.6987042427062988,-0.0745233595371246,0.1062874197959899,0.1832541674375534,#
10.001997947692873,-4.304687976837158,1.495514154434204,-0.1099525094032287,0.0720799788832664,0.2492256760597229,#
11.038090705871582,-5.101497650146484,2.7589242458343506,-0.0671931952238082,0.0415376126766204,0.4251496791839599,#
11.038090705871582,-5.101497650146484,2.7589242458343506,-0.007330167107284,0.0867403075098991,0.517998456954956,#
11.351551055908203,-5.8097734451293945,4.4027934074401855,0.1368297785520553,0.2956500649452209,0.7782194018363953,#
11.06919765472412,-6.63051176071167,5.836094379425049,-0.0439810007810592,0.5705313086509705,1.2925527095794678,#
11.85165023803711,-7.968099594116211,7.53021240234375,-0.2980934381484985,0.7012526392936707,1.6700563430786133,#
14.44786262512207,-9.15733242034912,8.190631866455078,-0.8490777015686035,0.9419264793395996,2.5044736862182617,#
14.44786262512207,-9.15733242034912,8.190631866455078,-0.8270871639251709,1.2424633502960205,3.1776275634765625,#
16.323835372924805,-10.205389022827148,8.214560508728027,-0.6267292499542236,1.580872654914856,3.5258102416992188,#
17.154144287109375,-10.447062492370604,7.34357213973999,-0.3811686933040619,2.349318504333496,4.250275135040283,#
16.778470993041992,-10.62413215637207,6.0466628074646,-0.4007157981395721,2.732930421829224,4.596014499664307,#
15.314064025878906,-10.913663864135742,5.264209270477295,-0.3872771561145782,3.408527612686157,5.182427883148193,#
13.871192932128906,-10.683953285217283,4.711467742919922,-0.2761029601097107,3.909422397613525,5.589252471923828,#
13.871192932128906,-10.683953285217283,4.711467742919922,-0.2321219593286514,4.181860446929932,5.696761608123779,#
11.499905586242676,-9.848857879638672,4.271188735961914,0.0061084721237421,4.620448589324951,5.799383640289307,#
9.710074424743652,-8.530412673950195,3.218346357345581,-0.0537545569241046,4.853792667388916,5.788388729095459,#
8.197811126708984,-6.695117950439453,2.565105676651001,-0.2638860046863556,4.912433624267578,5.718751907348633,#
5.773881435394287,-5.66620397567749,1.7347965240478516,-0.7061393857002258,4.927093982696533,5.504955768585205,#
5.773881435394287,-5.66620397567749,1.7347965240478516,-0.9443698525428772,4.845240116119385,5.442648887634277,#
3.6634113788604736,-5.998805999755859,0.9092726111412048,-1.0140063762664795,4.475067138671875,5.23618221282959,#
2.723031997680664,-6.503692150115967,-0.5886343717575073,-0.5106682777404785,4.169643402099609,4.994287014007568,#
1.660618782043457,-6.989434719085693,-1.5960125923156738,0.0574196390807628,3.994940757751465,4.714519023895264,#
0.5431707501411438,-6.872186660766602,-0.8494520783424377,1.3255385160446167,3.702955961227417,3.963176965713501,#
-0.6675975918769836,-5.56331205368042,-1.124626636505127,2.3700873851776123,3.628432512283325,3.403640985488892,#
-0.6675975918769836,-5.56331205368042,-1.124626636505127,2.685284376144409,3.536805391311645,3.153193473815918,#
-1.7012970447540283,-3.5461630821228027,-1.6175479888916016,2.660850763320923,3.330339193344116,2.522799253463745,#
-2.4909284114837646,-1.4452648162841797,-1.4404792785644531,1.9852535724639893,3.2472639083862305,1.8972915410995483,#
-2.895315170288086,-1.2538390159606934,-0.9427721500396729,1.5161229372024536,3.1861791610717773,1.6578394174575806,#
-2.825923442840576,-2.763710021972656,-1.588834285736084,0.1246128380298614,2.9845995903015137,1.2644537687301636,#
-2.825923442840576,-2.763710021972656,-1.588834285736084,-0.5705313086509705,2.916184663772583,1.0885297060012815,#
-2.964707374572754,-4.122833251953125,-2.4741785526275635,-1.2314679622650146,2.7524778842926025,0.7635590434074402,#
-3.596412420272827,-4.386044025421143,-2.541177749633789,-1.240019917488098,2.5472328662872314,0.4214845895767212,#
-4.065405368804932,-4.151546955108643,-2.7038896083831787,-1.1166287660598757,2.455605745315552,0.2761029601097107,#
-4.498506546020508,-4.268795490264893,-3.136990547180176,-1.0030112266540527,2.305337429046631,0.0171037223190069,#
-4.371686935424805,-5.115854740142822,-3.775874137878418,-1.1031900644302368,2.1343002319335938,-0.2076880484819412,#
-4.371686935424805,-5.115854740142822,-3.775874137878418,-1.2058125734329224,2.070772171020508,-0.2785463333129883,#
-4.185047149658203,-5.752345561981201,-4.517649173736572,-1.5833160877227783,2.048781633377075,-0.3799469769001007,#
-4.515256404876709,-5.529813289642334,-5.546562671661377,-1.7812305688858032,2.0634419918060303,-0.4275930821895599,#
-4.974678039550781,-5.7619171142578125,-6.534798622131348,-2.1074230670928955,2.148960590362549,-0.5558710098266602,#
-4.934000015258789,-6.881758213043213,-8.09252643585205,-2.131856918334961,2.200271844863892,-0.6927007436752319,#
-4.934000015258789,-6.881758213043213,-8.09252643585205,-2.017017602920532,2.169729471206665,-0.7879929542541504,#
-4.113262176513672,-7.901099681854248,-10.7437744140625,-1.9681499004364011,1.8814095258712769,-0.95169997215271,#
-3.617947816848755,-7.089932918548584,-14.012369155883787,-2.7121615409851074,1.2864443063735962,-1.0335536003112793,left
-4.053441524505615,-6.977471351623535,-15.66102409362793,-3.202061176300049,0.8551861643791199,-1.1593880653381348,left
-2.9383859634399414,-8.772088050842285,-15.84048557281494,-3.859333038330078,-0.2321219593286514,-1.4110571146011353,left
-2.9383859634399414,-8.772088050842285,-15.84048557281494,-3.800691604614258,-0.8515210747718811,-1.5527737140655518,left
-0.0143569353967905,-9.942178726196287,-16.709081649780273,-3.060344696044922,-2.071993827819824,-1.93272066116333,left
3.1728827953338623,-9.942178726196287,-17.996417999267578,-2.828222751617432,-2.9955947399139404,-2.3945212364196777,left
2.538784980773926,-10.566704750061035,-17.869600296020508,-3.121429443359375,-3.4525086879730225,-2.685284376144409,left
2.706282377243042,-12.162715911865234,-18.063417434692383,-4.076794624328613,-4.367558002471924,-3.0249156951904297,left
5.821736812591553,-14.041083335876465,-19.578075408935547,-4.697415351867676,-5.393780708312988,-3.243598937988281,left
5.821736812591553,-14.041083335876465,-19.578075408935547,-4.790264129638672,-6.052274227142334,-3.3889806270599365,left
10.001997947692873,-14.986248016357422,-20.461027145385746,-4.3028082847595215,-7.757760047912598,-4.187968730926514,left
14.55075454711914,-15.80698585510254,-19.810178756713867,-3.938743114471436,-9.426594734191896,-4.666872978210449,left
17.977275848388672,-16.309478759765625,-17.45564079284668,-4.065799236297607,-10.193819046020508,-4.887999534606934,left
21.241085052490234,-16.948362350463867,-14.038690567016602,-4.944197654724121,-11.47171115875244,-5.19953203201294,left
21.241085052490234,-16.948362350463867,-14.038690567016602,-5.040711402893066,-12.087445259094238,-5.467082977294922,left
26.790040969848636,-22.688743591308597,-0.0550349205732345,-3.40119743347168,-11.857766151428224,-5.644228458404541,left
21.64547538757324,-27.07478904724121,2.5938196182250977,-1.637070655822754,-9.078411102294922,-3.673635482788086,left
13.107882499694824,-22.98545265197754,-3.517449140548706,-0.8857284784317017,-8.31607437133789,-2.7720248699188232,left
15.708879470825195,-21.418153762817383,5.493920803070068,0.8319739699363708,-8.251324653625488,-1.6382923126220703,left
15.938591957092283,-17.460426330566406,13.545768737792969,2.030456304550171,-7.426680564880371,-0.7513421177864075,left
15.938591957092283,-17.460426330566406,13.545768737792969,2.0414514541625977,-6.5800461769104,-0.1612636744976043,left
11.98564910888672,-11.93779182434082,15.022140502929688,1.6089717149734497,-5.114012718200684,0.4532486498355865,left
9.93978500366211,-6.912864685058594,14.806787490844728,1.3389772176742554,-4.577689170837402,0.5045598149299622,left
8.394021987915039,-5.845665454864502,15.184853553771973,0.6853706240653992,-3.6553099155426025,0.6426112651824951,left
7.549355506896973,-6.345765590667725,15.84048557281494,0.6963658928871155,-2.831887722015381,0.6230642199516296,left
7.549355506896973,-6.345765590667725,15.84048557281494,0.965138614177704,-2.404294729232788,0.5399889945983887,left
7.183253765106201,-6.556333541870117,16.409976959228516,1.7458014488220217,-1.3621894121170044,0.3726168274879455,left
5.718846321105957,-4.572684288024902,14.117652893066406,1.9095085859298704,-0.2052446752786636,0.2785463333129883,left
3.2997026443481445,-2.754138946533203,11.014162063598633,1.6944903135299685,0.2150182276964187,0.1747023165225982,left
0.5814558863639832,-3.553341627120972,8.185846328735352,1.0372185707092283,0.790436327457428,-0.1221694499254226,left
0.5814558863639832,-3.553341627120972,8.185846328735352,0.2418954968452453,1.060430884361267,-0.3445178270339966,left
-0.1914258003234863,-5.812166690826416,6.7621169090271,0.0061084721237421,1.142284274101257,-0.4239279925823211,#
0.0478564500808715,-8.47059154510498,5.481956481933594,-0.1319430023431778,1.381736397743225,-0.4923428893089294,#
0.4881358444690704,-9.66939640045166,4.744967460632324,-0.0134386392310261,1.501462459564209,-0.5277720093727112,#
0.3493521213531494,-9.59043312072754,3.680161237716675,0.4703523814678192,1.7690136432647705,-0.6878139972686768,#
0.519242525100708,-9.509077072143556,2.6536402702331543,1.233911395072937,1.8936264514923096,-0.8258654475212097,#
0.519242525100708,-9.509077072143556,2.6536402702331543,1.665169596672058,1.8655275106430051,-0.8246437907218933,#
1.1748759746551514,-9.023333549499512,2.115255117416382,2.5093605518341064,1.8533105850219729,-0.9138274788856506,#
-0.0454636327922344,-8.420342445373535,1.3328022956848145,3.1177642345428467,2.343209981918335,-1.3756279945373535,#
-2.543570280075073,-7.908278465270996,0.0167497582733631,3.263145923614502,2.5765538215637207,-1.5918679237365725,#
-2.4909284114837646,-6.65204668045044,-0.3828516006469726,3.352329730987549,2.3236629962921143,-1.7311410903930664,#
-2.4909284114837646,-6.65204668045044,-0.3828516006469726,3.343777656555176,1.8985131978988647,-1.72991943359375,#
-0.4283152520656585,-5.735595226287842,0.6532405614852905,3.0994389057159424,1.4171655178070068,-1.9705932140350344,#
0.064606212079525,-5.54177713394165,0.906879723072052,2.4983651638031006,1.538113355636597,-2.62297797203064,#
-1.648654818534851,-7.247859954833984,1.1820544004440308,2.1330785751342773,1.6492875814437866,-2.892972469329834,#
0.5072783827781677,-7.161717891693115,1.3375877141952517,1.3890666961669922,1.5637688636779783,-3.2154998779296875,#
0.5072783827781677,-7.161717891693115,1.3375877141952517,1.1080769300460815,1.200925588607788,-3.243598937988281,#
2.7828526496887207,-6.309873104095459,1.3878371715545654,1.0811996459960938,0.9932376146316528,-3.301018476486206,#
3.13938307762146,-6.3529438972473145,1.0121639966964722,0.8246437907218933,0.7207997441291809,-3.7945830821990967,#
1.5864413976669312,-6.972684860229492,0.0837487876415252,-0.0256555844098329,1.0946382284164429,-4.363893032073975,#
1.8376877307891848,-10.322636604309082,-0.397208571434021,-0.7183563709259033,1.3658545017242432,-4.602123260498047,#
1.8376877307891848,-10.322636604309082,-0.397208571434021,-1.7238109111785889,1.494132399559021,-5.01016902923584,#
4.438685894012451,-12.930814743041992,-1.0169496536254885,-2.0035789012908936,1.3560807704925537,-5.096909523010254,#
5.587240695953369,-11.880364418029783,-1.641476273536682,-2.2747950553894043,1.0592091083526611,-5.238626003265381,#
4.453042984008789,-9.942178726196287,-2.68953275680542,-2.5618932247161865,1.172826647758484,-5.437762260437012,#
3.950549840927124,-10.829915046691896,-3.1106693744659424,-2.9467270374298096,1.3463072776794434,-5.528167724609375,#
3.950549840927124,-10.829915046691896,-3.1106693744659424,-3.9509599208831783,1.4452645778656006,-5.656445503234863,#
6.580262184143066,-14.620145797729492,-2.548356056213379,-4.388326644897461,1.2070342302322388,-5.596582412719727,#
9.06879711151123,-15.64427375793457,-2.792424201965332,-4.3150248527526855,1.1838220357894895,-5.486629962921143,#
9.03290557861328,-12.626924514770508,-3.6299118995666495,-4.267378807067871,1.281557559967041,-5.228852272033691,#
8.126025199890137,-13.263416290283203,-3.854837417602539,-4.687641620635986,1.4721418619155884,-4.993065357208252,#
8.542377471923828,-16.9722900390625,-2.723031997680664,-5.096909523010254,1.7177023887634275,-4.705967426300049,#
8.542377471923828,-16.9722900390625,-2.723031997680664,-3.5600175857543945,1.48802387714386,-5.037046432495117,#
8.10688304901123,-16.893327713012695,-2.596212387084961,-2.1648426055908203,1.3621894121170044,-5.072475910186768,#
8.336593627929688,-14.108081817626951,-1.1437692642211914,-0.0061084721237421,0.8038749694824219,-4.786599159240723,#
9.4660062789917,-11.102697372436523,-0.9188438653945924,-0.5424323678016663,0.175924003124237,-4.084124565124512,#
10.11924648284912,-11.057233810424805,-0.5623133182525635,-1.2852225303649902,0.0268772784620523,-3.733498334884644,#
10.11924648284912,-11.057233810424805,-0.5623133182525635,-2.637638568878174,-0.0891837030649185,-3.2900230884552,#
9.891928672790527,-11.19362449645996,-0.5455635190010071,-3.1312029361724854,-0.0769667476415634,-2.899080991744995,#
8.970691680908203,-10.7437744140625,-1.4715858697891235,-3.483051061630249,0.0232121963053941,-2.6461901664733887,#
9.190832138061523,-9.578469276428224,-1.5912269353866575,-3.497711420059204,0.1221694499254226,-2.074437141418457,#
9.394222259521484,-11.475976943969728,-0.2273181527853012,-3.597890138626098,0.1844758540391922,-1.8007776737213137,#
8.37727165222168,-14.524432182312012,0.7657032012939453,-4.151318073272705,0.7611156702041626,-1.0250016450881958,#
8.37727165222168,-14.524432182312012,0.7657032012939453,-3.772592544555664,0.9419264793395996,-0.2993151545524597,#
7.178467750549316,-12.370892524719238,-0.117248311638832,-3.127537727355957,1.054322361946106,-0.2089097648859024,#
7.314858913421631,-9.446864128112791,-1.3974084854125977,-1.3157649040222168,0.8808417320251465,-0.2309002727270126,#
8.130810737609863,-7.2813591957092285,-1.5337992906570437,-0.0952921733260154,0.3213056325912475,-0.1404948681592941,#
8.343771934509277,-6.350551128387451,-1.3495519161224363,0.0794101431965828,0.1710372269153595,-0.0757450610399246,#
8.343771934509277,-6.350551128387451,-1.3495519161224363,-0.0219905003905296,0.0806318372488021,0.0891837030649185,#
8.358129501342773,-6.592226982116699,-1.2299107313156128,-0.0085518611595034,0.0415376126766204,0.1844758540391922,#
8.870193481445312,-6.496513843536377,-1.1270195245742798,0.3066453039646148,-0.0586413368582725,0.3677300214767456,#
8.987441062927246,-6.16391134262085,-1.0959126949310305,0.8429691791534424,-0.123391143977642,0.4361449182033539,#
9.059226989746094,-6.017949104309082,-0.4761717021465301,1.1031900644302368,-0.1123958900570869,0.448361873626709,#
9.138189315795898,-6.498906135559082,0.5048855543136597,1.3573025465011597,-0.0891837030649185,0.5595360994338989,#
9.138189315795898,-6.498906135559082,0.5048855543136597,1.2840008735656738,-0.0879620015621185,0.7769976854324341,#
9.66221809387207,-7.312465667724609,0.9475577473640442,1.1764918565750122,-0.069636583328247,0.9040539264678956,#
9.884750366210938,-8.12841796875,1.6223337650299072,0.8283088207244873,0.0366508327424526,1.196038842201233,#
10.466205596923828,-9.592825889587402,2.7349963188171387,0.5961868762969971,0.1038440242409706,1.3670761585235596,#
11.509476661682127,-11.148160934448242,3.115455150604248,0.1319430023431778,0.1930277347564697,1.7824522256851196,#
11.509476661682127,-11.148160934448242,3.115455150604248,-0.1111741960048675,0.2516690790653229,2.3297715187072754,#
12.416357040405272,-12.358928680419922,3.397808313369751,-0.0891837030649185,0.3176405727863312,2.605874300003052,#
12.717851638793944,-12.614960670471191,3.081955671310425,0.1246128380298614,0.5534276366233826,3.2093913555145264,#
12.301501274108888,-12.59103298187256,2.7804601192474365,0.3469612300395965,0.8295305371284485,3.903313875198364,#
12.330215454101562,-13.39980697631836,3.3714869022369385,0.3921639025211334,0.9321528673171996,4.231949806213379,#
12.330215454101562,-13.39980697631836,3.3714869022369385,0.5302154421806335,1.044548749923706,4.737730979919434,#
12.220145225524902,-13.15573787689209,3.653840303421021,0.8429691791534424,1.2962177991867063,5.153107643127441,#
10.942378044128418,-12.224931716918944,3.7256247997283936,0.95169997215271,1.5185662508010864,5.343691349029541,#
9.69093132019043,-10.8370943069458,3.613162040710449,1.0983033180236816,2.0096874237060547,5.61857271194458,#
8.556733131408691,-9.30329418182373,2.9288151264190674,1.155722975730896,2.224705696105957,5.671105861663818,#
7.027719974517822,-7.628318786621094,2.108076810836792,1.3182083368301392,2.640081882476806,5.596582412719727,#
7.027719974517822,-7.628318786621094,2.108076810836792,1.456259846687317,3.0774483680725098,5.338804721832275,#
5.635097503662109,-6.910471439361572,1.275374412536621,1.5307831764221191,3.246042251586914,5.168989658355713,#
4.436293125152588,-6.585048198699951,0.2584248483181,1.8215465545654297,3.47327733039856,4.736509799957275,#
3.562912940979004,-5.785844802856445,-0.4354937374591827,1.799556016921997,3.611328840255737,4.335793972015381,#
2.2851457595825195,-5.273780822753906,-0.1507478207349777,1.6382923126220703,3.6675267219543457,4.131770610809326,#
2.2851457595825195,-5.273780822753906,-0.1507478207349777,1.313321590423584,3.702955961227417,3.593003273010254,#
1.3423734903335571,-5.029713153839111,-0.0454636327922344,1.2155860662460327,3.751823663711548,3.3511078357696533,#
0.5120640397071838,-5.168497085571289,-0.9188438653945924,1.1337324380874634,3.743271827697754,2.875868797302246,#
-0.5096712112426758,-5.649453639984131,-1.5385849475860596,1.1300673484802246,3.683408975601196,2.345653295516968,#
-1.2801601886749268,-5.26899528503418,-1.6175479888916016,1.187487006187439,3.71517276763916,2.120861768722534,#
-2.1750757694244385,-4.163511276245117,-1.380658507347107,1.147171139717102,3.625989198684693,1.7604618072509766,#
-2.1750757694244385,-4.163511276245117,-1.380658507347107,0.8869501948356628,3.346221208572388,1.3634110689163208,#
-2.89052963256836,-3.3547375202178955,-1.0959126949310305,0.6255075931549072,3.1788489818573,1.1630531549453735,#
-3.115455150604248,-3.433700561523437,-1.1437692642211914,-0.1856975704431533,3.022472381591797,0.9419264793395996,#
-3.022134780883789,-4.907679080963135,-1.191625714302063,-0.8991671204566956,2.9149630069732666,0.7281299233436584,#
-3.046063184738159,-6.070591449737549,-2.117647886276245,-1.0946382284164429,2.8599867820739746,0.5522059202194214,#
-3.046063184738159,-6.070591449737549,-2.117647886276245,-1.1630531549453735,2.8221142292022705,0.2675510942935943,#
-3.4025940895080566,-6.094519138336182,-3.1992037296295166,-1.077534556388855,2.8416614532470703,0.1856975704431533,#
-4.232903003692627,-5.046462535858154,-4.965107440948486,-0.8466342687606812,2.872203826904297,0.0097735561430454,#
-5.314458847045898,-4.405186176300049,-8.441878318786621,-0.864959716796875,2.866095304489136,-0.2956500649452209,#
-6.10887622833252,-4.938785552978516,-7.740781307220459,-1.012784719467163,2.8306660652160645,-0.4569137394428253,#
-6.10887622833252,-4.938785552978516,-7.740781307220459,-1.6492875814437866,2.436058759689331,-0.7342383861541748,#
-5.292923927307129,-6.417550563812256,-10.719844818115234,-2.3676440715789795,1.92294716835022,-0.9749122262001038,#
-5.240281581878662,-6.135197162628174,-14.012369155883787,-2.808675765991211,1.6602827310562134,-1.0811996459960938,#
-4.814359188079834,-6.412764549255371,-16.137195587158203,-3.789696216583252,1.0335536003112793,-1.099524974822998,#
-3.2159535884857178,-7.707281589508057,-15.687345504760742,-4.154983043670654,0.5851916074752808,-1.2192511558532717,left
-1.495514154434204,-9.109475135803224,-15.263816833496094,-4.153761386871338,-0.5057815313339233,-1.666391372680664,left
-1.495514154434204,-9.109475135803224,-15.263816833496094,-3.508706331253052,-1.6285187005996704,-1.977923393249512,left
-0.9571290016174316,-9.853643417358398,-15.022140502929688,-3.1666321754455566,-2.108644723892212,-2.0011355876922607,left
-0.1268195956945419,-9.93260669708252,-15.751952171325684,-2.6938364505767822,-2.7231569290161133,-2.03412127494812,left
1.4883356094360352,-10.73420238494873,-16.60618782043457,-2.575331926345825,-3.4073057174682617,-2.2894556522369385,left
4.19701099395752,-11.062018394470217,-15.890734672546388,-2.542346239089966,-3.7273900508880615,-2.373752355575561,left
4.19701099395752,-11.062018394470217,-15.890734672546388,-2.6193130016326904,-4.355340957641602,-2.491034984588623,left
6.7070817947387695,-12.043076515197754,-15.687345504760742,-2.7268221378326416,-4.609453678131104,-2.514247179031372,left
7.877171993255615,-12.73220920562744,-17.89352798461914,-2.988264799118042,-5.153107643127441,-2.7695813179016118,left
9.145368576049805,-13.701302528381348,-19.587646484375,-3.341334342956543,-5.682101249694824,-2.846548318862915,left
12.50010585784912,-13.564910888671877,-18.410377502441406,-3.4073057174682617,-6.101141929626465,-2.9919300079345703,left
16.455442428588867,-15.218351364135742,-16.295122146606445,-3.597890138626098,-7.079719543457031,-3.214278221130371,left
16.455442428588867,-15.218351364135742,-16.295122146606445,-3.263145923614502,-7.9886603355407715,-3.635762929916382,left
18.309877395629883,-15.802199363708496,-14.823535919189451,-2.373752355575561,-8.95013427734375,-4.087789535522461,left
20.18106460571289,-16.524831771850586,-12.145968437194824,-1.2827792167663574,-9.421708106994627,-4.209959030151367,left
21.13101577758789,-15.230316162109377,-11.966506004333496,-0.7317950129508972,-9.535325050354004,-4.148874282836914,left
24.646072387695312,-15.51506233215332,-5.307280540466309,0.0904053896665573,-10.00445556640625,-4.04869556427002,left
24.646072387695312,-15.51506233215332,-5.307280540466309,0.4740174412727356,-10.201148986816406,-3.881323337554932,left
24.99781990051269,-21.64786720275879,10.466205596923828,0.3762818872928619,-8.968459129333496,-2.2173755168914795,left
18.08256149291992,-16.94357681274414,5.508277893066406,-0.4251496791839599,-7.080941200256348,-0.2101314514875412,left
14.194223403930664,-14.12243938446045,0.97148597240448,-0.3713951408863067,-7.033295154571533,0.2101314514875412,left
17.3934268951416,-16.61097526550293,10.913663864135742,-0.1869192570447921,-7.016191482543945,0.6584933400154114,left
15.48395538330078,-15.079567909240724,19.03251075744629,1.480693817138672,-5.936213493347168,0.8197570443153381,left
15.48395538330078,-15.079567909240724,19.03251075744629,2.403073072433472,-5.143333911895752,1.0274450778961182,left
12.624531745910645,-8.683552742004395,19.4010066986084,2.3615353107452397,-3.7970263957977295,1.738471269607544,left
9.82971477508545,-4.185047149658203,17.860029220581055,1.066539287567139,-2.765916347503662,1.8801878690719604,left
7.085147857666016,-3.9529430866241455,16.472190856933594,0.6536065340042114,-2.4116251468658447,1.8239898681640625,left
5.592026710510254,-4.65643310546875,15.838092803955078,0.0513111688196659,-1.7115939855575562,1.6859383583068848,left
5.592026710510254,-4.65643310546875,15.838092803955078,-0.1099525094032287,-1.369519591331482,1.594311237335205,left
4.2376885414123535,-5.45563554763794,14.289936065673828,0.031764056533575,-0.7342383861541748,1.3059914112091064,left
2.352144718170166,-6.190232276916504,12.796814918518066,0.5302154421806335,-0.0720799788832664,0.901610553264618,left
0.1459621787071228,-6.63051176071167,11.018948554992676,0.864959716796875,0.2687727808952331,0.6707102656364441,left
-1.919043779373169,-6.283552646636963,8.288737297058105,1.4269392490386963,0.9138274788856506,0.1441599577665329,left
-1.919043779373169,-6.283552646636963,8.288737297058105,1.6932685375213623,1.3401988744735718,-0.2956500649452209,#
-2.172683000564575,-7.140182495117188,5.345565319061279,1.7115939855575562,1.40617036819458,-0.3836120665073395,#
0.0047856452874839,-8.422735214233398,3.818945169448853,1.8252116441726685,1.2791141271591189,-0.2748812437057495,#
2.076970100402832,-8.283952713012695,3.555734634399414,1.927833914756775,1.248571753501892,-0.2541124522686004,#
2.050648927688598,-7.051648139953613,2.3784656524658203,2.2063801288604736,1.5784293413162231,-0.5766398310661316,#
0.6245267391204834,-5.776273727416992,0.6436693072319031,2.120861768722534,2.148960590362549,-0.9736905097961426,#
0.6245267391204834,-5.776273727416992,0.6436693072319031,1.8728575706481931,2.2491395473480225,-1.0506572723388672,#
0.3302095234394073,-5.685347080230713,0.0717846825718879,1.4745851755142212,1.93272066116333,-1.0408836603164673,#
1.2705888748168943,-6.448657035827637,1.88075852394104,1.4684767723083496,1.859418988227844,-1.2229161262512207,#
0.6149553656578064,-7.805387496948242,2.5746772289276123,1.794669270515442,2.071993827819824,-1.5430002212524414,#
-0.9451649785041808,-8.628519058227539,1.65583336353302,2.4226200580596924,2.563115119934082,-2.1795029640197754,#
-0.9451649785041808,-8.628519058227539,1.65583336353302,2.5936574935913086,2.6657373905181885,-2.383526086807251,#
-1.5026925802230835,-7.456035614013672,0.0215354058891534,2.7231569290161133,2.5240206718444824,-2.704831600189209,#
-0.1986042857170105,-6.063412666320801,-0.236889436841011,2.294342279434204,2.0695505142211914,-3.182514190673828,#
1.0408778190612793,-5.168497085571289,0.3613162040710449,1.751909852027893,1.9363857507705688,-3.481829166412353,#
0.3110669553279876,-6.857830047607422,-0.0239282250404357,0.4019374847412109,2.0671072006225586,-4.146430969238281,#
-0.6843472719192505,-9.446864128112791,-0.794417142868042,-1.188708782196045,2.3334364891052246,-4.7169623374938965,#
-0.6843472719192505,-9.446864128112791,-0.794417142868042,-1.7079288959503174,2.447054147720337,-4.85012674331665,#
0.4402793645858764,-11.526226997375488,-1.529013752937317,-1.7690136432647705,2.3566486835479736,-4.94175386428833,#
2.531606435775757,-12.701102256774902,-1.9142580032348635,-1.48802387714386,2.178281307220459,-5.151885509490967,#
3.335594892501831,-12.361321449279783,-3.072384119033813,-1.5613255500793457,2.1966066360473637,-5.247177600860596,#
2.431107759475708,-11.877972602844238,-3.634697675704956,-2.400629758834839,2.502030372619629,-5.381564140319824,#
2.431107759475708,-11.877972602844238,-3.634697675704956,-2.9589438438415527,2.806232213973999,-5.482964992523193,#
1.368694543838501,-12.129218101501465,-3.830909013748169,-3.795804738998413,3.083556890487671,-5.583143711090088,#
2.7421746253967285,-13.069597244262695,-3.290131092071533,-3.718837976455689,2.928401470184326,-5.332695960998535,#
5.654239654541016,-14.555541038513184,-4.536791324615479,-3.608885526657105,2.894194364547729,-5.09813117980957,#
6.975078105926514,-13.306486129760742,-6.309873104095459,-3.5331404209136963,3.129981279373169,-4.559363842010498,#
6.975078105926514,-13.306486129760742,-6.309873104095459,-2.7414824962615967,3.216721534729004,-4.8672308921813965,#
5.737988471984863,-13.466805458068848,-6.805188179016113,-2.1184182167053223,3.150750160217285,-5.046820163726807,#
3.888336658477783,-12.392428398132324,-6.496513843536377,-0.7000309228897095,2.6571855545043945,-5.254508018493652,#
3.902693748474121,-14.4263277053833,-5.718846321105957,-0.333522617816925,2.2173755168914795,-5.282606601715088,#
6.618547439575195,-13.435699462890623,-3.8979082107543945,-1.1618314981460571,1.4513731002807615,-4.591127872467041,#
9.159724235534668,-11.657832145690918,-4.579862117767334,-2.825779438018799,1.0482138395309448,-3.897205352783203,#
9.159724235534668,-11.657832145690918,-4.579862117767334,-3.601555347442627,0.9162708520889282,-3.696847677230835,#
9.023333549499512,-11.655439376831056,-5.414957523345947,-4.059690952301025,0.8112051486968994,-3.308348655700684,#
7.853243827819824,-12.63171100616455,-4.5391845703125,-3.238712310791016,0.6768187284469604,-3.055458068847656,#
7.913064479827881,-12.681960105895996,-3.383451223373413,-2.546011447906494,0.5302154421806335,-3.028580665588379,#
8.544770240783691,-12.540782928466797,-3.500699520111084,-1.196038842201233,0.155155211687088,-2.8013453483581543,#
8.544770240783691,-12.540782928466797,-3.500699520111084,-0.707361102104187,0.0219905003905296,-2.6449685096740723,#
8.511269569396973,-12.212966918945312,-3.613162040710449,-0.0525328628718853,-0.0989572554826736,-2.284568548202514,#
8.090132713317871,-10.181459426879885,-2.6799612045288086,0.4031591713428497,-0.0610847249627113,-1.935163974761963,#
8.843873023986816,-11.294123649597168,0.4689932465553283,0.7843278050422668,-0.0891837030649185,-1.8985131978988647,#
9.42054271697998,-10.40638542175293,3.840480089187622,-0.6279509663581848,0.4178195297718048,-0.6658235192298889,#
8.030312538146973,-10.088139533996582,2.234896183013916,-2.912519693374634,0.7635590434074402,0.0293206684291362,#
8.030312538146973,-10.088139533996582,2.234896183013916,-3.161745309829712,0.7427902817726135,-0.0733016654849052,#
7.951349258422852,-8.69791030883789,-0.8087739944458008,-2.309002637863159,0.5424323678016663,0.0109952501952648,#
7.724031925201416,-8.090132713317871,-1.6079767942428589,-0.758672297000885,0.3775035738945007,0.0024433890357613,#
7.527820110321045,-6.80040168762207,-1.7754744291305542,-0.123391143977642,0.2553341388702392,-0.0280989725142717,#
7.697710037231445,-5.398207664489746,-2.0003998279571533,0.7195780277252197,-0.003665083553642,-0.1026223376393318,#
7.697710037231445,-5.398207664489746,-2.0003998279571533,1.0140063762664795,-0.1185043603181839,-0.1319430023431778,#
8.379664421081543,-4.6301116943359375,-1.8089739084243772,1.2962177991867063,-0.199136197566986,-0.1136175915598869,#
8.640481948852539,-4.139583110809326,-1.3471590280532837,1.243685007095337,-0.1612636744976043,-0.0733016654849052,#
8.537590980529785,-3.627518892288208,-1.1485549211502075,1.1251806020736694,-0.1392731666564941,-0.0623064190149307,#
8.575876235961914,-3.34995174407959,-1.0049854516983032,0.8234220743179321,-0.1624853760004043,-0.0781884491443634,#
8.9850492477417,-3.704089403152466,-0.4546363055706024,0.5607577562332153,-0.1966928243637085,-0.1014006435871124,#
8.9850492477417,-3.704089403152466,-0.4546363055706024,0.4556920528411865,-0.1844758540391922,-0.1099525094032287,#
9.133403778076172,-4.347758769989014,0.0765703245997428,0.3994940817356109,-0.1417165547609329,-0.1392731666564941,#
9.116654396057127,-4.986642360687256,0.2536391913890838,0.4569137394428253,-0.1209477484226226,-0.1392731666564941,#
9.14297580718994,-5.290531158447266,0.2919243574142456,0.6230642199516296,-0.0708582773804664,-0.0855186134576797,#
9.119047164916992,-5.737988471984863,0.5144568681716919,0.8173136115074158,-0.0476460866630077,0.0244338884949684,#
9.119047164916992,-5.737988471984863,0.5144568681716919,0.905275583267212,-0.0586413368582725,0.0806318372488021,#
9.66221809387207,-6.489335060119629,1.5314064025878906,0.9211575984954834,-0.0940704718232154,0.2284568697214126,#
9.858428955078123,-8.310273170471191,3.5509488582611084,1.1581664085388184,0.0109952501952648,0.3665083348751068,#
9.568897247314451,-10.722238540649414,5.5968122482299805,1.3194299936294556,0.0842969194054603,0.517998456954956,#
10.157532691955566,-11.748759269714355,6.726224899291992,1.7421363592147827,0.2443388998508453,0.9358179569244384,#
10.157532691955566,-11.748759269714355,6.726224899291992,2.087875843048096,0.3457395434379577,1.4587032794952393,#
13.088740348815918,-10.882556915283203,6.276373863220215,2.0756590366363525,0.3677300214767456,1.6553959846496582,#
15.079567909240724,-11.038090705871582,5.86720085144043,1.930277228355408,0.926044464111328,2.1343002319335938,#
15.6705961227417,-12.007183074951172,5.862415313720703,1.8899613618850708,1.188708782196045,2.4812614917755127,#
16.40279769897461,-11.86122226715088,5.824130058288574,1.9143953323364256,1.6932685375213623,3.202061176300049,#
16.788043975830078,-10.719844818115234,5.599205493927002,1.830098390579224,2.334658145904541,3.916752576828003,#
16.788043975830078,-10.719844818115234,5.599205493927002,1.674943208694458,2.7353739738464355,4.213624477386475,#
15.591632843017578,-9.607183456420898,5.86720085144043,1.3560807704925537,3.584451675415039,4.65099048614502,#
14.065011024475098,-8.760124206542969,5.752345561981201,1.100746750831604,4.399322032928467,4.820806503295898,#
11.913863182067873,-7.401000499725342,4.433900356292725,0.9284878373146056,4.780490398406982,4.844018459320068,#
10.112068176269531,-6.491727352142334,2.864208698272705,0.4446967840194702,5.285050392150879,4.852570533752441,#
10.112068176269531,-6.491727352142334,2.864208698272705,0.1979145109653473,5.451200485229492,4.815919876098633,#
8.382057189941406,-5.338387489318848,1.1102697849273682,-0.3347443044185638,5.707756996154785,4.682754993438721,#
6.647261142730713,-4.242474555969238,-0.794417142868042,-0.9272661209106444,5.638119697570801,4.411539077758789,#
4.431507587432861,-3.931407451629639,-1.947757601737976,-1.1361758708953855,5.566040515899658,4.2221760749816895,#
2.2372891902923584,-4.453042984008789,-2.562713146209717,-1.321873426437378,5.177541255950928,3.7970263957977295,#
0.6580261588096619,-4.883750915527344,-2.909672498703003,-1.3511940240859983,4.872117519378662,3.303461790084839,#
0.6580261588096619,-4.883750915527344,-2.909672498703003,-1.3292036056518557,4.712075233459473,3.0798919200897217,#
-1.5242280960083008,-5.194818019866943,-3.0245277881622314,-1.450151443481445,4.445745944976807,2.7414824962615967,#
-2.763710021972656,-4.869394302368164,-3.680161237716675,-1.5674339532852173,4.095119953155518,2.659628868103028,#
-3.1992037296295166,-5.257031440734863,-3.5437703132629395,-1.4916889667510986,3.776257514953613,2.552119731903076,#
-2.71346116065979,-5.749952793121338,-3.491128206253052,-1.1606097221374512,3.403640985488892,2.233257532119751,#
-2.71346116065979,-5.749952793121338,-3.491128206253052,-0.9956809878349304,3.248485803604126,2.0145742893218994,#
-2.2683956623077397,-5.376672744750977,-3.1274189949035645,-0.7684457898139954,3.110434055328369,1.6040849685668943,#
-2.3186452388763428,-4.417150497436523,-3.3714869022369385,-0.8295305371284485,3.127537727355957,1.3182083368301392,#
-2.4095723628997803,-3.689732551574707,-4.223331928253174,-0.9932376146316528,3.12631630897522,1.1716049909591677,#
-2.4741785526275635,-4.311866760253906,-5.187639236450195,-1.4550381898880005,2.9919300079345703,0.8087617754936218,#
-2.4741785526275635,-4.311866760253906,-5.187639236450195,-2.0145742893218994,2.7732462882995605,0.4654656052589416,#
-2.8833510875701904,-5.838487148284912,-7.125825881958008,-2.2955639362335205,2.6315298080444336,0.3591781854629516,#
-3.6634113788604736,-6.65204668045044,-9.535398483276367,-2.780576705932617,2.20760178565979,0.1649287492036819,#
-4.481756687164307,-6.3529438972473145,-10.24606704711914,-2.9992599487304688,1.9852535724639893,0.0195471122860908,#
-4.658825397491455,-6.733402729034424,-11.260623931884766,-3.1861791610717773,1.3792930841445925,-0.3005368411540985,#
-3.785445213317871,-7.623533248901367,-12.607781410217283,-3.32300877571106,0.5522059202194214,-0.5448757410049438,#
-3.785445213317871,-7.623533248901367,-12.607781410217283,-3.5160367488861084,0.0476460866630077,-0.6047387719154358,#
-1.7754744291305542,-7.898707389831543,-13.409377098083496,-3.6870739459991455,-0.8564078211784363,-0.7879929542541504,#
-0.7465606331825256,-8.204988479614258,-13.442877769470217,-3.335226058959961,-1.5882028341293335,-1.1997039318084717,#
-2.0410776138305664,-8.166703224182129,-13.55055332183838,-3.0566794872283936,-1.894848108291626,-1.3988401889801023,left
-1.5720844268798828,-8.906085968017578,-14.189438819885254,-2.774468183517456,-2.484926700592041,-1.610193371772766,left
-1.5720844268798828,-8.906085968017578,-14.189438819885254,-2.797680377960205,-2.828222751617432,-1.6627261638641355,left
1.7156537771224976,-9.954142570495604,-15.80698585510254,-2.921071529388428,-3.271697998046875,-1.8166598081588743,left
4.859822750091553,-10.016355514526367,-16.79522132873535,-3.2301602363586426,-3.790918111801148,-2.290677070617676,left
5.125426292419434,-10.042675971984863,-16.4793701171875,-3.292466402053833,-4.217289447784424,-2.5875487327575684,left
5.321637630462647,-11.34676456451416,-17.180465698242188,-3.341334342956543,-5.115234851837158,-2.9845995903015137,left
8.118846893310547,-12.380464553833008,-17.651853561401367,-3.621102333068848,-6.1109161376953125,-3.0481276512146,left
8.118846893310547,-12.380464553833008,-17.651853561401367,-3.7457151412963863,-6.675338745117188,-3.211834669113159,left
11.44247817993164,-13.344771385192873,-17.479570388793945,-3.7457151412963863,-7.802962779998779,-3.749380350112915,left
14.072189331054688,-14.33061408996582,-16.103696823120117,-3.8544461727142334,-8.749775886535645,-4.229506015777588,left
16.180265426635742,-14.46221923828125,-12.007183074951172,-4.134214401245117,-9.122392654418944,-4.3846611976623535,left
18.01077651977539,-17.685352325439453,-5.797809600830078,-3.618659019470215,-9.626952171325684,-4.923429012298584,left
18.01077651977539,-17.685352325439453,-5.797809600830078,-2.930845260620117,-9.680706977844238,-5.057815074920654,left
17.2666072845459,-19.41775703430176,-1.2370892763137815,-1.501462459564209,-9.520665168762209,-4.666872978210449,left
17.85045623779297,-19.74796485900879,2.172683000564575,-1.3157649040222168,-8.570186614990234,-3.326673984527588,left
16.426727294921875,-19.623538970947266,2.4574286937713623,-1.3414205312728882,-7.844500064849853,-2.6657373905181885,left
13.701302528381348,-20.932411193847656,6.843472957611084,-1.2778924703598022,-6.6289143562316895,-1.4965757131576538,left
11.813365936279297,-19.62114715576172,14.06740379333496,-0.0928487852215766,-5.741963863372803,-1.068982720375061,left
11.813365936279297,-19.62114715576172,14.06740379333496,0.5705313086509705,-5.2838287353515625,-0.7440119385719299,left
10.325029373168944,-15.723237037658691,18.4031982421875,1.1935955286026,-4.1525397300720215,0.1038440242409706,left
7.884350299835205,-11.45205020904541,17.783458709716797,1.0787562131881714,-3.586894989013672,0.3823903799057007,left
4.831109046936035,-9.10229778289795,16.235301971435547,0.4776825606822967,-2.5594499111175537,0.6939224600791931,left
2.9623143672943115,-7.688138484954834,15.31885051727295,0.123391143977642,-1.810551166534424,0.6951441764831543,left
2.9623143672943115,-7.688138484954834,15.31885051727295,0.1392731666564941,-1.4452645778656006,0.6474980711936951,left
2.3712873458862305,-7.286144733428955,13.641481399536133,0.4202629029750824,-0.7464553117752075,0.5815265774726868,left
1.6223337650299072,-6.647261142730713,10.23888874053955,0.5351021885871887,-0.1404948681592941,0.4337015450000763,#
-0.3708875179290771,-5.807380676269531,6.692724704742432,0.4703523814678192,0.1246128380298614,0.2956500649452209,#
-2.2468602657318115,-6.396015167236328,4.378865718841553,0.5241069197654724,0.4960079491138458,0.0061084721237421,#
-2.2468602657318115,-6.396015167236328,4.378865718841553,0.6719319820404053,0.7403469085693359,-0.2015795856714248,#
-2.8977081775665283,-7.269395351409912,3.2039895057678223,0.8050966858863831,0.8551861643791199,-0.2883199155330658,#
-3.3092737197875977,-8.276773452758789,2.5938196182250977,1.187487006187439,0.9907942414283752,-0.5070031881332397,#
-3.32602334022522,-8.535198211669922,2.359323024749756,1.3230950832366943,1.0628741979599,-0.577861487865448,#
-2.933600425720215,-7.956134796142578,2.3545374870300293,1.3621894121170044,1.1251806020736694,-0.5937435030937195,#
-2.6153552532196045,-8.147561073303223,2.871387243270874,1.0298885107040403,1.1532796621322632,-0.6132906079292297,#
-2.6153552532196045,-8.147561073303223,2.871387243270874,0.836860716342926,1.1349540948867798,-0.5900784730911255,#
-1.7563319206237793,-8.98265552520752,3.775874137878418,0.7452336549758911,0.9871291518211364,-0.4141544103622436,#
-0.3828516006469726,-9.664610862731934,4.450649738311768,1.148392915725708,0.860072910785675,-0.1661504507064819,#
0.8374879360198975,-9.487542152404783,3.8261232376098633,1.453816533088684,0.9162708520889282,-0.0745233595371246,#
0.48574298620224,-9.401400566101074,2.854637384414673,2.0842106342315674,1.0750911235809326,-0.1478250324726104,#
0.48574298620224,-9.401400566101074,2.854637384414673,2.349318504333496,1.233911395072937,-0.1881409436464309,#
0.1244267746806144,-9.075976371765137,2.122433662414551,2.837996244430542,1.2070342302322388,-0.1160609796643257,#
0.8231310248374939,-8.793622970581055,2.1750757694244385,3.472055673599243,0.965138614177704,-0.0232121963053941,#
1.146162033081055,-9.343972206115724,2.502892255783081,3.83612060546875,0.9284878373146056,-0.0867403075098991,#
0.1555334776639938,-8.788837432861328,2.2707886695861816,4.367558002471924,1.1826002597808838,-0.3457395434379577,#
-1.497907042503357,-7.185646057128906,1.146162033081055,4.801259517669678,1.5039058923721311,-0.712247908115387,#
-1.497907042503357,-7.185646057128906,1.146162033081055,5.084692478179932,1.501462459564209,-0.8796200752258301,#
-1.65583336353302,-5.235496044158936,0.2081755697727203,5.408441543579102,1.0372185707092283,-1.1508362293243408,#
-1.093519926071167,-3.981656789779663,1.6079767942428589,4.769495010375977,0.6120689511299133,-1.533226490020752,#
-2.830709218978882,-3.603590488433838,2.581855773925781,4.135435581207275,0.5754181146621704,-1.8508671522140503,#
-4.677968502044678,-4.364508152008057,3.3403804302215576,2.575331926345825,0.7440119385719299,-2.403073072433472,#
-4.677968502044678,-4.364508152008057,3.3403804302215576,1.7274760007858276,0.574196457862854,-2.598544120788574,#
-3.783052444458008,-4.941178798675537,3.421736478805542,0.3726168274879455,0.0525328628718853,-2.90030288696289,#
-0.672383189201355,-5.044069766998291,2.991028308868408,-0.2345653474330902,-0.3701734542846679,-3.4317398071289062,#
0.6891329884529114,-5.374279499053955,3.1345977783203125,-0.4691306948661804,-0.4361449182033539,-3.7970263957977295,#
-0.5024927258491516,-7.22153902053833,2.902493953704834,-0.9138274788856506,-0.0513111688196659,-4.348010540008545,#
-0.5024927258491516,-7.22153902053833,2.902493953704834,-1.257123589515686,0.1856975704431533,-4.675425052642822,#
-1.521835207939148,-9.564111709594728,2.854637384414673,-1.4990191459655762,0.3029802441596985,-4.84279727935791,#
0.5718846321105957,-12.122039794921877,3.684947013854981,-0.5082249045372009,-0.0024433890357613,-5.14455509185791,#
3.0317063331604004,-11.921042442321776,3.6681969165802,0.1673721522092819,-0.2626643180847168,-5.238626003265381,#
4.031906127929688,-9.891928672790527,3.6634113788604736,1.2143642902374268,-0.9272661209106444,-5.456087589263916,#
3.675375461578369,-8.97787094116211,4.242474555969238,0.7843278050422668,-1.461146593093872,-5.5904741287231445,#
3.675375461578369,-8.97787094116211,4.242474555969238,-0.2834331095218658,-1.5405566692352295,-5.493960380554199,#
4.0079779624938965,-7.324430465698242,4.534398555755615,-2.436058759689331,-1.4318259954452517,-5.278942108154297,#
5.309673309326172,-8.173882484436035,3.4408791065216064,-3.905757427215576,-1.4049487113952637,-5.464639663696289,#
7.216752529144287,-8.544770240783691,2.4957141876220703,-4.348010540008545,-1.414722204208374,-5.574592113494873,#
9.31765079498291,-9.614361763000488,2.352144718170166,-4.536151885986328,-1.3585243225097656,-5.694317817687988,#
9.31765079498291,-9.614361763000488,2.352144718170166,-4.377331256866455,-1.233911395072937,-5.715086460113525,#
10.868200302124023,-12.177074432373049,1.648654818534851,-4.487284183502197,-0.98590749502182,-5.625903129577637,#
11.73440170288086,-10.779664993286133,0.5048855543136597,-5.288715362548828,-0.7806627750396729,-5.452422618865967,#
12.53599739074707,-9.978070259094238,-1.107876896858215,-5.8103790283203125,-0.5803048610687256,-5.340026378631592,#
13.2299165725708,-9.511469841003418,-2.7661027908325195,-6.967323303222656,-0.069636583328247,-5.004060745239258,#
13.502697944641112,-11.629117965698242,-3.651447057723999,-7.126143932342529,0.4190412163734436,-4.699858665466309,#
13.502697944641112,-11.629117965698242,-3.651447057723999,-6.747418880462647,0.6267292499542236,-4.5752458572387695,#
13.806586265563965,-13.761122703552246,-3.35713005065918,-5.766397953033447,0.9333745837211608,-4.168421268463135,#
13.320843696594238,-13.452449798583984,-3.201596736907959,-5.3278093338012695,1.044548749923706,-3.931412696838379,#
12.3397855758667,-12.05504035949707,-3.6370904445648193,-4.995509147644043,1.2351330518722534,-3.220386743545532,#
11.294123649597168,-10.482955932617188,-3.8524444103240967,-5.208083629608154,1.2693406343460083,-2.461714506149292,#
11.294123649597168,-10.482955932617188,-3.8524444103240967,-5.182427883148193,1.2302463054656982,-2.100092887878418,#
9.58325481414795,-10.588239669799805,-4.584648132324219,-4.536151885986328,0.8686248064041138,-1.4269392490386963,#
8.226524353027344,-10.884950637817385,-4.319044589996338,-3.324230670928955,0.448361873626709,-0.8906152844429016,#
7.534998416900635,-11.176874160766602,-2.806780815124512,-2.742703914642334,0.2467822879552841,-0.6474980711936951,#
7.36032247543335,-10.985447883605955,-1.9740787744522093,-1.9547111988067627,-0.0415376126766204,-0.0733016654849052,#
7.36032247543335,-10.985447883605955,-1.9740787744522093,-1.627297043800354,-0.1575985848903656,0.4874561131000519,#
7.025327682495117,-10.526025772094728,-1.8975083827972408,-1.5442218780517578,-0.2541124522686004,0.6988092660903931,#
7.223931312561035,-11.521440505981444,-0.969093143939972,-1.4073920249938965,-0.5644228458404541,1.137397527694702,#
8.389235496520996,-14.414361953735352,-0.0047856452874839,-1.29499614238739,-0.6462763547897339,1.4489295482635498,#
9.870393753051758,-17.8743839263916,0.6221339106559753,-0.0280989725142717,-0.6853706240653992,2.0524466037750244,#
12.16032600402832,-15.845272064208984,0.9882357716560364,1.5161229372024536,-0.5241069197654724,2.494700193405152,#
12.16032600402832,-15.845272064208984,0.9882357716560364,1.955932855606079,-0.605960488319397,2.988264799118042,#
15.385849952697754,-14.869000434875488,1.6893328428268433,1.6395140886306765,-0.3567348122596741,4.433529376983643,#
16.500904083251953,-14.749359130859377,3.115455150604248,0.5363238453865051,0.031764056533575,5.572148323059082,#
15.792630195617676,-15.584453582763672,3.452842950820923,0.0500894747674465,0.1856975704431533,6.163448333740234,#
15.46481227874756,-16.335800170898438,3.6059837341308594,-0.4361449182033539,0.3042019307613373,7.109039783477783,#
15.46481227874756,-16.335800170898438,3.6059837341308594,-0.4679089784622192,0.3347443044185638,7.463331699371338,#
14.380865097045898,-16.19940948486328,3.445664882659912,-0.2626643180847168,0.620620846748352,7.983773708343506,#
12.851851463317873,-14.490934371948242,3.0963122844696045,0.0916270837187767,0.905275583267212,8.284310340881348,#
11.320443153381348,-12.134003639221191,1.94297194480896,0.3078669905662536,1.0482138395309448,8.341730117797852,#
9.621540069580078,-9.882357597351074,1.6127625703811646,1.0274450778961182,1.3145432472229004,8.146259307861328,#
8.109275817871094,-7.489534854888916,0.8805587291717529,1.962041258811951,1.6969337463378906,7.587944030761719,#
8.109275817871094,-7.489534854888916,0.8805587291717529,2.2576913833618164,1.9339423179626465,7.25686502456665,#
6.300302028656006,-4.764110088348389,-0.662811815738678,2.372530698776245,2.3969645500183105,6.532400608062744,#
3.682554006576538,-3.208775281906128,-2.6847469806671143,2.5582282543182373,2.505695581436157,5.567261695861816,#
1.4452648162841797,-3.043670415878296,-3.677768468856812,2.681619167327881,2.519134044647217,5.040711402893066,#
-0.0358923412859439,-2.476571559906006,-3.720839262008667,2.827000856399536,2.7084968090057373,3.971728801727295,#
-0.0358923412859439,-2.476571559906006,-3.720839262008667,2.7353739738464355,2.7720248699188232,3.4708340167999268,#
-1.3998013734817505,-1.8233308792114256,-4.1036906242370605,2.260134696960449,2.8453264236450195,2.6132044792175293,#
-2.560320377349853,-2.4717857837677,-4.895715236663818,1.192373752593994,2.947948932647705,1.9901403188705444,#
-2.4358932971954346,-3.799802303314209,-4.993820667266846,0.6975875496864319,2.9235148429870605,1.698155403137207,#
-2.234896183013916,-5.460421085357666,-4.551148891448975,0.1881409436464309,2.728043794631958,1.1019684076309204,#
-2.234896183013916,-5.460421085357666,-4.551148891448975,-0.0928487852215766,2.6999447345733643,0.8502993583679199,#
-2.196611166000366,-5.900700569152832,-4.35254430770874,-0.2309002727270126,2.7060532569885254,0.8490777015686035,#
-2.4741785526275635,-4.649254322052002,-5.7619171142578125,-0.6193991303443909,2.725600242614746,0.8881718516349792,#
-2.854637384414673,-3.500699520111084,-6.585048198699951,-0.8551861643791199,2.6913931369781494,0.7806627750396729,#
-3.058027505874634,-5.338387489318848,-8.037490844726562,-1.4477078914642334,2.502030372619629,0.2712161839008331,#
-3.5341989994049072,-7.355536937713623,-10.52363395690918,-2.2980072498321533,2.2576913833618164,-0.0048867780715227,#
-3.5341989994049072,-7.355536937713623,-10.52363395690918,-2.75003433227539,2.115974903106689,-0.0244338884949684,left
-4.424329280853272,-7.341179370880127,-13.337594032287598,-3.429296493530273,1.5967546701431274,-0.1221694499254226,left
-5.178067684173584,-6.819544315338135,-13.543376922607422,-3.6027772426605225,0.5595360994338989,-0.463022232055664,left
-4.223331928253174,-7.570890426635742,-13.052846908569336,-3.673635482788086,-0.0476460866630077,-0.605960488319397,left
-1.964507341384888,-8.556733131408691,-12.87817096710205,-3.788474798202514,-1.123958945274353,-0.860072910785675,left
-1.964507341384888,-8.556733131408691,-12.87817096710205,-3.778700828552246,-1.4281609058380127,-1.0103412866592407,left
-1.2035897970199585,-9.760323524475098,-13.92862033843994,-3.891096830368042,-1.698155403137207,-1.3243167400360107,left
-1.026520848274231,-10.126425743103027,-15.493526458740234,-3.998605966567993,-2.4519410133361816,-1.6297403573989868,left
0.4091726541519165,-9.96131992340088,-15.95294952392578,-4.049917221069336,-2.9345102310180664,-1.815437912940979,left
1.2538390159606934,-11.076375007629396,-16.44586944580078,-4.054803848266602,-3.757932424545288,-2.354205369949341,left
3.297309637069702,-12.866207122802734,-16.9603271484375,-4.020596504211426,-4.712075233459473,-2.724378824234009,left
3.297309637069702,-12.866207122802734,-16.9603271484375,-4.027926921844482,-5.277719974517822,-2.8416614532470703,left
6.290730953216553,-14.553147315979004,-16.79761505126953,-3.919195890426636,-6.275844573974609,-3.075005054473877,left
9.396614074707031,-15.852450370788574,-16.79761505126953,-3.8752150535583496,-7.404690265655518,-3.4317398071289062,left
11.806187629699709,-15.90987777709961,-16.498512268066406,-3.886210203170776,-7.952009677886963,-3.569791078567505,left
14.684751510620115,-15.364313125610352,-12.418749809265137,-4.350454330444336,-8.974568367004395,-3.838564157485962,left
14.684751510620115,-15.364313125610352,-12.418749809265137,-4.581354141235352,-9.411934852600098,-3.946073293685913,left
18.32184219360352,-18.206987380981445,-2.5363922119140625,-3.831233978271485,-9.641613006591797,-4.240501403808594,left
15.646666526794434,-20.11167526245117,3.893122434616089,-2.7207136154174805,-8.891491889953613,-3.6895172595977774,left
12.3278226852417,-17.682960510253906,0.7345964908599854,-2.4433889389038086,-8.328290939331055,-3.2264950275421143,left
15.96730613708496,-19.379470825195312,8.71466064453125,-1.682273268699646,-7.398581981658935,-2.4629359245300293,left
13.840085983276367,-19.245473861694336,12.5264253616333,-1.0286667346954346,-6.064491748809815,-1.6040849685668943,left
7.377072334289551,-15.467206001281738,9.133403778076172,-0.9626952409744264,-5.222743988037109,-0.9773555994033812,left
6.345765590667725,-12.52881908416748,12.232110023498535,-0.5387672781944275,-4.3150248527526855,-0.3408527672290802,left
5.333601474761963,-10.396815299987791,17.034503936767578,-0.2858764827251434,-4.003492832183838,-0.0647498071193695,left
3.0005996227264404,-9.657432556152344,17.81934928894043,-0.0733016654849052,-3.1336464881896973,0.1014006435871124,left
3.0005996227264404,-9.657432556152344,17.81934928894043,-0.0464243926107883,-2.288233757019043,-0.069636583328247,left
1.5026925802230835,-8.791230201721191,15.28534984588623,-0.007330167107284,-1.7775654792785645,-0.040315918624401,left
0.7896314859390259,-7.963313579559326,11.00698471069336,0.0549762547016143,-1.0005677938461304,0.1111741960048675,left
0.2871387302875519,-8.183453559875488,8.585447311401367,-0.0549762547016143,-0.3762818872928619,0.1563768982887268,left
-1.0001999139785769,-9.14297580718994,6.908078193664551,-0.1148392781615257,-0.1637070626020431,0.1490467190742492,#
-1.0001999139785769,-9.14297580718994,6.908078193664551,0.0525328628718853,0.2321219593286514,0.0733016654849052,#
-2.667997360229492,-9.212367057800291,5.54177713394165,0.5094466209411621,0.6316159963607788,-0.1380514800548553,#
-3.94097900390625,-8.884550094604492,4.153940200805664,0.7757760286331177,0.8002098798751831,-0.2492256760597229,#
-4.299902439117432,-8.82951545715332,2.75174617767334,1.141062617301941,1.0811996459960938,-0.4104893505573272,#
-3.555734634399414,-8.824729919433594,2.069791555404663,1.1826002597808838,1.1764918565750122,-0.4581354260444641,#
-1.9238293170928955,-9.14297580718994,2.395215511322021,0.9920158982276917,1.2534584999084473,-0.3616215586662292,#
-1.9238293170928955,-9.14297580718994,2.395215511322021,0.6365028619766235,1.240019917488098,-0.1404948681592941,#
-0.5718846321105957,-9.375079154968262,2.636890411376953,0.5289937257766724,1.2290246486663818,-0.0439810007810592,#
-0.138783723115921,-9.236295700073242,2.2372891902923584,0.5338804721832275,1.257123589515686,0.1172826737165451,#
-0.8063812851905823,-9.042476654052734,1.2825528383255005,0.8050966858863831,1.4550381898880005,0.1270562261343002,#
-1.0169496536254885,-8.439485549926758,1.0145567655563354,0.9419264793395996,1.5967546701431274,0.130721315741539,#
-1.0169496536254885,-8.439485549926758,1.0145567655563354,1.1569446325302124,1.695711970329285,0.1747023165225982,#
0.1220339611172676,-7.70249605178833,1.411765456199646,1.281557559967041,1.6199668645858765,0.2541124522686004,#
1.0815558433532717,-7.482356548309326,1.8855443000793457,1.510014295578003,1.4183871746063232,0.3958290219306946,#
0.246460735797882,-7.511070251464844,0.5694918036460876,1.7103723287582395,1.5857594013214111,0.261442631483078,#
-1.730010747909546,-7.668996810913086,-0.2440679222345352,1.7531315088272097,1.810551166534424,0.1050657257437706,#
-2.368894338607788,-7.247859954833984,-0.6867401003837585,1.7323628664016724,2.296785831451416,-0.2516690790653229,#
-2.368894338607788,-7.247859954833984,-0.6867401003837585,1.6285187005996704,2.431172132492065,-0.3823903799057007,#
-0.6293123364448547,-6.558726787567139,-0.236889436841011,1.6285187005996704,2.2576913833618164,-0.416597843170166,#
0.7393822073936462,-6.379265785217285,-0.397208571434021,1.61874520778656,1.8264333009719849,-0.6511631608009338,#
0.2536391913890838,-7.058826446533203,-1.7012970447540283,1.51734459400177,1.9205037355422971,-1.1349540948867798,#
-1.124626636505127,-7.190432548522949,-2.51007080078125,1.400061845779419,2.222262382507324,-1.4306042194366455,#
-1.124626636505127,-7.190432548522949,-2.51007080078125,0.9370396137237548,2.8050105571746826,-1.9522677659988403,#
-0.9834501147270204,-6.680760860443115,-2.84506630897522,0.7134696245193481,2.8343310356140137,-2.152625799179077,#
0.0741775035858154,-6.159125804901123,-2.9072794914245605,0.4495835602283478,2.5008084774017334,-2.5667803287506104,#
0.5982056856155396,-7.130610942840576,-4.60139799118042,0.0855186134576797,2.250361204147339,-3.1031041145324707,#
-0.3852444589138031,-8.939584732055664,-5.888736724853516,-0.0989572554826736,2.2760169506073,-3.390202283859253,#
-0.3852444589138031,-8.939584732055664,-5.888736724853516,-0.730573296546936,2.6742892265319824,-4.019374847412109,#
-0.916451096534729,-10.588239669799805,-6.0538411140441895,-1.241241693496704,2.95650053024292,-4.649769306182861,#
0.5479563474655151,-13.05763339996338,-5.376672744750977,-1.2070342302322388,2.825779438018799,-4.9051032066345215,#
3.0317063331604004,-12.46660614013672,-4.393222332000732,-1.2351330518722534,2.296785831451416,-4.95763635635376,#
4.807180881500244,-11.918648719787598,-5.204389572143555,-1.3438639640808103,2.1281917095184326,-4.7951507568359375,#
4.474578380584717,-12.837493896484377,-5.14456844329834,-1.401283621788025,2.161177635192871,-4.5752458572387695,#
4.474578380584717,-12.837493896484377,-5.14456844329834,-1.382958173751831,2.37741756439209,-4.736509799957275,#
3.1968109607696533,-14.024333000183104,-4.874179840087891,-1.2778924703598022,2.4714879989624023,-4.858679294586182,#
2.7421746253967285,-14.921642303466797,-4.65643310546875,-0.652384877204895,2.4262852668762207,-5.13111686706543,#
4.0079779624938965,-15.725629806518556,-3.981656789779663,-0.1600419729948043,2.1281917095184326,-5.133560657501221,#
5.740381240844727,-14.414361953735352,-3.744767427444458,-0.2577775418758392,1.8765227794647217,-4.935645580291748,#
5.740381240844727,-14.414361953735352,-3.744767427444458,-0.9724688529968262,1.5442218780517578,-4.404208660125732,#
6.522834300994873,-13.483555793762209,-2.68953275680542,-1.3316470384597778,1.4269392490386963,-4.261270523071289,#
5.910271644592285,-13.46201992034912,-1.7180466651916504,-1.6541743278503418,1.2131426334381104,-4.141544342041016,#
5.278566360473633,-14.392828941345217,-1.3974084854125977,-1.243685007095337,1.1948171854019165,-3.928969383239746,#
5.422136306762695,-14.182259559631348,-1.2562319040298462,-0.8625163435935974,1.1667182445526123,-3.771370887756348,#
6.10887622833252,-12.918848991394045,-1.1820544004440308,-0.3029802441596985,0.9822423458099364,-3.319344043731689,#
6.10887622833252,-12.918848991394045,-1.1820544004440308,0.1185043603181839,0.6927007436752319,-2.9406187534332275,#
6.221338748931885,-11.531012535095217,-0.5551348924636841,0.2602209150791168,0.577861487865448,-2.828222751617432,#
6.293124198913574,-11.16012477874756,0.2081755697727203,0.4361449182033539,0.4446967840194702,-2.6303083896636963,#
7.068397998809815,-11.31565761566162,0.3948157429695129,0.5302154421806335,0.3994940817356109,-2.290677070617676,#
8.11406135559082,-10.798808097839355,0.8877372145652771,0.416597843170166,0.3359659910202026,-2.047559976577759,#
8.11406135559082,-10.798808097839355,0.8877372145652771,0.0244338884949684,0.2284568697214126,-1.5601038932800293,#
8.827122688293457,-10.487741470336914,1.6965112686157229,-0.1331647038459777,0.2186833024024963,-1.382958173751831,#
8.934800148010254,-10.518847465515137,2.864208698272705,-0.2382304221391677,0.2699944972991943,-1.0518789291381836,#
9.013763427734377,-11.026127815246582,3.8356947898864746,-0.1539334952831268,0.4727957546710968,-0.5888567566871643,#
9.568897247314451,-11.49272632598877,4.515256404876709,-0.155155211687088,0.5485408306121826,-0.2907632887363434,#
10.05224895477295,-10.85862922668457,4.802394866943359,-0.1490467190742492,0.6450546979904175,0.388498842716217,#
10.05224895477295,-10.85862922668457,4.802394866943359,-0.0818535313010215,0.7440119385719299,1.0714260339736938,#
10.332208633422852,-10.17906665802002,4.668396949768066,0.0232121963053941,0.7745543122291565,1.3634110689163208,#
10.80120086669922,-10.040283203125,4.938785552978516,0.3310791850090027,0.8356390595436096,1.8239898681640625,#
11.633904457092283,-10.825129508972168,5.438885688781738,0.4556920528411865,0.8783983588218689,2.0438947677612305,#
12.447463035583496,-11.291730880737305,5.797809600830078,0.6413896083831787,1.0750911235809326,2.5044736862182617,#
12.447463035583496,-11.291730880737305,5.797809600830078,0.652384877204895,1.4269392490386963,3.009033679962158,#
12.507284164428713,-11.085947036743164,4.878964900970459,0.6181774139404297,1.6676130294799805,3.2301602363586426,#
11.882757186889648,-10.413564682006836,4.086941242218018,0.4410317242145538,2.1917200088500977,3.583229780197144,#
11.102697372436523,-10.112068176269531,3.7328033447265625,0.1514901220798492,2.6022093296051025,3.882545232772827,#
10.52841854095459,-10.033105850219728,4.098905563354492,0.0500894747674465,2.7561426162719727,3.9827239513397217,#
10.52841854095459,-10.033105850219728,4.098905563354492,-0.0623064190149307,3.0505709648132324,4.151318073272705,#
9.65503978729248,-10.277173042297363,4.175475597381592,-0.1172826737165451,3.2130565643310547,4.249053478240967,#
8.839086532592773,-9.91107177734375,3.270988702774048,-0.069636583328247,3.465947151184082,4.378552913665772,#
7.700103282928467,-8.676375389099121,2.555534601211548,0.0879620015621185,3.650423288345337,4.3846611976623535,#
6.116055011749268,-7.211967468261719,1.7156537771224976,0.1685938388109207,3.755488872528076,4.3467888832092285,#
4.354937553405762,-6.285945415496826,0.9308080077171326,0.1698155403137207,3.926526069641113,4.21851110458374,#
4.354937553405762,-6.285945415496826,0.9308080077171326,0.0390942245721817,3.980280637741089,3.988832473754883,#
2.5052852630615234,-6.135197162628174,-0.4019941985607147,-0.0610847249627113,3.9424080848693848,3.8410074710845943,#
1.0408778190612793,-6.98704195022583,-1.239482045173645,-0.2944283783435821,3.7994697093963614,3.558796167373657,#
-0.1531406491994857,-7.097111701965332,-2.526820659637451,-0.333522617816925,3.573456287384033,3.307126998901367,#
-1.916650891304016,-6.611368656158447,-3.744767427444458,-0.3494046330451965,3.483051061630249,3.1336464881896973,#
-1.916650891304016,-6.611368656158447,-3.744767427444458,-0.2260134816169738,3.308348655700684,2.736595630645752,#
-3.06999135017395,-5.32403039932251,-3.797409296035767,-0.152711808681488,3.33889102935791,2.643746852874756,#
-4.101297855377197,-4.074976921081543,-3.290131092071533,-0.2382304221391677,3.0249156951904297,2.406738042831421,#
-4.467400074005127,-4.553541660308838,-3.2279179096221924,-0.5008947253227234,2.758586168289185,2.0524466037750244,#
-3.988835573196411,-4.682754039764404,-2.57228422164917,-0.790436327457428,2.7268221378326416,1.9143953323364256,#
-3.201596736907959,-6.180660724639893,-4.039084434509277,-1.871635913848877,2.605874300003052,1.806886076927185,#
-3.201596736907959,-6.180660724639893,-4.039084434509277,-2.3468751907348637,2.4861481189727783,1.6676130294799805,#
-3.433700561523437,-7.202396392822266,-6.128018856048584,-2.218597173690796,2.4519410133361816,1.5454435348510742,#
-4.680361270904541,-5.960521221160889,-7.436892509460449,-1.977923393249512,2.502030372619629,1.3059914112091064,#
-5.340780735015869,-5.273780822753906,-9.370293617248535,-1.7910041809082031,2.4604926109313965,1.1997039318084717,#
-4.718646049499512,-4.869394302368164,-10.932806968688965,-1.6773865222930908,2.065885305404663,0.9529216885566713,#
-4.718646049499512,-4.869394302368164,-10.932806968688965,-2.707274913787842,1.3487507104873655,0.7721109390258789,#
-4.34536600112915,-6.62333345413208,-12.52164077758789,-3.3315608501434326,1.0433270931243896,0.6291726231575012,left
-4.737788677215576,-8.506484031677246,-13.35434341430664,-4.174530029296875,0.3701734542846679,0.2846547961235046,left
-4.754538536071777,-9.860822677612305,-12.966705322265623,-4.092676639556885,-0.5851916074752808,-0.1380514800548553,left
-3.4576287269592285,-9.930214881896973,-12.454641342163086,-3.777479410171509,-1.1850436925888062,-0.3151971697807312,left
-3.4576287269592285,-9.930214881896973,-12.454641342163086,-3.150750160217285,-2.3627572059631348,-0.4911211729049682,left
-1.710868239402771,-9.597611427307127,-11.84447193145752,-3.051792860031128,-3.2277169227600098,-0.6193991303443909,left
-1.2634103298187256,-10.384849548339844,-11.643473625183104,-3.187401056289673,-3.5013763904571533,-0.7110261917114258,left
-0.9786643981933594,-11.408977508544922,-11.521440505981444,-3.566126108169556,-3.795804738998413,-0.8881718516349792,left
0.3230310678482055,-12.253644943237305,-11.444870948791504,-3.665083408355713,-3.980280637741089,-0.9578084945678712,left
2.53399920463562,-12.303894996643066,-10.40638542175293,-3.56123948097229,-4.439637660980225,-1.0848647356033323,left
2.53399920463562,-12.303894996643066,-10.40638542175293,-3.2814714908599854,-4.818362712860107,-1.2168077230453491,left
3.929014682769776,-12.308679580688477,-9.57607650756836,-2.988264799118042,-4.9246506690979,-1.3866231441497805,left
3.32602334022522,-12.418749809265137,-9.20997428894043,-3.0994389057159424,-5.018721103668213,-1.485580563545227,left
2.4717857837677,-13.392627716064451,-8.621339797973633,-3.1287596225738525,-5.126230239868164,-1.5307831764221191,left
4.096512317657471,-14.746965408325195,-8.693124771118164,-3.002924919128418,-5.470747947692871,-1.58942449092865,left
4.096512317657471,-14.746965408325195,-8.693124771118164,-2.9809346199035645,-5.65766716003418,-1.6016414165496826,left
6.03230619430542,-15.13938808441162,-9.131011009216309,-2.9064111709594727,-6.031505584716797,-1.6786081790924072,left
6.230910301208496,-14.120046615600586,-7.728816509246826,-3.055458068847656,-6.437108039855957,-1.8655275106430051,left
5.192424774169922,-13.966906547546388,-5.635097503662109,-3.1055474281311035,-6.551947593688965,-1.9840317964553835,left
6.072984218597412,-13.727622985839844,-3.888336658477783,-3.0334672927856445,-6.796286582946777,-2.186833143234253,left
9.355937004089355,-14.438291549682615,0.5958128571510315,-3.028580665588379,-7.2312092781066895,-2.469044685363769,left
9.355937004089355,-14.438291549682615,0.5958128571510315,-3.216721534729004,-7.3497138023376465,-2.45927095413208,left
11.947362899780272,-15.311671257019045,1.356730580329895,-3.8177952766418457,-6.879361629486084,-2.1281917095184326,left
11.504691123962402,-15.680167198181152,4.285545349121094,-3.307126998901367,-5.934991836547852,-2.0121307373046875,left
9.145368576049805,-16.821544647216797,6.668797016143799,-2.5118038654327397,-5.658888816833496,-2.0084657669067383,left
8.38444995880127,-18.049060821533203,9.415757179260254,-0.3151971697807312,-5.309484004974365,-1.8410935401916504,left
8.38444995880127,-18.049060821533203,9.415757179260254,0.6829272508621216,-5.111569881439209,-1.4122787714004517,left
8.166703224182129,-16.838293075561523,10.815558433532717,2.148960590362549,-4.602123260498047,-0.3921639025211334,left
8.561518669128418,-12.394822120666504,13.390235900878906,2.5179123878479004,-3.717616319656372,0.2724378705024719,left
6.939186096191406,-8.09252643585205,16.80000877380371,2.2833471298217773,-3.100660562515259,0.4532486498355865,left
4.433900356292725,-5.209175109863281,17.3814640045166,1.435490965843201,-1.927833914756775,0.5632011890411377,left
4.433900356292725,-5.209175109863281,17.3814640045166,0.574196457862854,-0.9700254201889038,0.5473191142082214,left
2.3066811561584477,-4.78803825378418,15.56052589416504,0.1417165547609329,-0.5656445622444153,0.5155550837516785,left
1.1629117727279663,-5.515456199645996,13.052846908569336,-0.5644228458404541,0.1575985848903656,0.4789042472839355,left
0.9451649785041808,-6.149554252624512,10.054640769958496,-0.7342383861541748,0.4508052766323089,0.416597843170166,#
0.6125625967979431,-7.183253765106201,7.45364236831665,-0.6939224600791931,0.9162708520889282,0.2162399291992187,#
0.2009970992803573,-7.654639720916748,5.477170467376709,-0.3115321099758148,1.2583452463150024,0.0195471122860908,#
0.2009970992803573,-7.654639720916748,5.477170467376709,-0.003665083553642,1.3878449201583862,-0.0867403075098991,#
0.0047856452874839,-8.212166786193848,4.302295207977295,0.7598939538002014,1.5039058923721311,-0.2528907656669616,#
0.5264209508895874,-8.396414756774902,3.4408791065216064,1.5002408027648926,1.4232741594314575,-0.3005368411540985,#
1.6247265338897705,-7.738388061523437,2.768495798110962,1.770235300064087,1.368297815322876,-0.2687727808952331,#
1.804188132286072,-6.64486837387085,1.6773687601089478,2.089097499847412,1.4391560554504397,-0.3139754831790924,#
1.804188132286072,-6.64486837387085,1.6773687601089478,2.045116662979126,1.5698773860931396,-0.3457395434379577,#
1.1940184831619265,-5.613561630249023,0.5000999569892883,1.510014295578003,1.5356699228286743,-0.3506263196468353,#
1.2681961059570312,-5.264209270477295,0.8590233325958252,0.9272661209106444,1.2791141271591189,-0.256555825471878,#
1.6007983684539795,-6.03230619430542,0.6652047038078308,0.8234220743179321,1.147171139717102,-0.2834331095218658,#
-0.114855483174324,-8.011170387268066,-0.2751745879650116,1.0579874515533447,1.1227372884750366,-0.6120689511299133,#
-0.114855483174324,-8.011170387268066,-0.2751745879650116,1.3377554416656494,1.3634110689163208,-0.989572525024414,#
-0.6029912829399109,-7.104290962219238,-0.4522434771060943,1.4025052785873413,1.452594757080078,-1.0592091083526611,#
0.1316052377223968,-6.415157318115234,-0.6508477926254272,1.594311237335205,1.227802872657776,-1.1532796621322632,#
0.0741775035858154,-6.530013084411621,-0.9930213689804076,1.659061074256897,0.8747332096099854,-1.5564388036727903,#
-1.3663017749786377,-8.11406135559082,-0.8470591902732849,1.6004197597503662,0.8759549260139465,-1.8826313018798828,#
-1.3663017749786377,-8.11406135559082,-0.8470591902732849,1.4916889667510986,1.2045906782150269,-2.660850763320923,#
-2.7038896083831787,-8.855835914611816,-0.4570291042327881,1.2290246486663818,1.3230950832366943,-3.00536847114563,#
-1.5792629718780518,-7.977671146392822,-0.1579262912273407,0.3640649616718292,1.3169866800308228,-3.301018476486206,#
0.1124626696109771,-7.508677005767822,-0.3349951505661011,-0.3408527672290802,0.8063183426856995,-3.4439568519592285,#
-0.0454636327922344,-9.568897247314451,-0.2919243574142456,-0.6682668924331665,0.6450546979904175,-3.601555347442627,#
-0.6101697683334351,-12.239288330078123,-0.4737788736820221,-1.155722975730896,0.8356390595436096,-4.264935493469238,#
-0.6101697683334351,-12.239288330078123,-0.4737788736820221,-1.6382923126220703,1.3084348440170288,-4.892886638641357,#
0.7130610942840576,-15.381063461303713,-0.6340980529785156,-1.706707239151001,1.3548591136932373,-4.988178730010986,#
3.2518460750579834,-14.266008377075195,0.2249253392219543,-1.5759859085083008,1.0372185707092283,-4.817141532897949,#
5.142175674438477,-12.650853157043455,0.3900300860404968,-1.4428211450576782,0.8820634484291077,-4.660764217376709,#
5.8265228271484375,-12.777671813964844,0.3708875179290771,-0.929709494113922,0.5925218462944031,-4.631443500518799,#
5.8265228271484375,-12.777671813964844,0.3708875179290771,-0.8771765828132629,0.3811686933040619,-4.75483512878418,#
4.438685894012451,-14.371292114257812,1.308874011039734,-1.1215155124664309,0.4691306948661804,-4.792707920074463,#
3.263810157775879,-15.586846351623535,2.084148406982422,-2.045116662979126,0.8979454636573792,-4.889221668243408,#
4.278366565704346,-15.749558448791504,2.2851457595825195,-2.129413604736328,0.8991671204566956,-4.892886638641357,#
6.123232841491699,-14.617753982543944,1.7156537771224976,-1.8435369729995728,0.7562289237976074,-4.752391338348389,#
6.123232841491699,-14.617753982543944,1.7156537771224976,-1.2351330518722534,0.4508052766323089,-4.22828483581543,#
7.381857395172119,-12.468998908996582,1.0456634759902954,-1.6334055662155151,0.200357899069786,-3.702955961227417,#
7.582855224609375,-12.318251609802246,0.4785645008087158,-2.087875843048096,0.2296785563230514,-3.494046211242676,#
6.632904052734375,-13.30409336090088,0.1818545311689376,-2.71460509300232,0.5412106513977051,-3.1312029361724854,#
6.221338748931885,-13.636695861816406,0.7106683850288391,-2.814784049987793,0.6927007436752319,-2.95650053024292,#
6.455835819244385,-12.440284729003906,0.8494520783424377,-2.418955087661743,0.7745543122291565,-2.626643180847168,#
6.455835819244385,-12.440284729003906,0.8494520783424377,-1.764126896858215,0.5522059202194214,-2.284568548202514,#
6.675975322723389,-10.829915046691896,0.6221339106559753,-1.6480658054351809,0.4581354260444641,-2.060998678207397,#
6.582655429840088,-9.346364974975586,0.5264209508895874,-1.754353165626526,0.4141544103622436,-1.6859383583068848,#
6.826723098754883,-9.073582649230955,0.784845769405365,-2.085432529449463,0.4605787992477417,-1.4477078914642334,#
6.860222339630127,-9.997212409973145,1.4404792785644531,-2.18438982963562,0.5033381581306458,-1.359745979309082,#
6.860222339630127,-9.997212409973145,1.4404792785644531,-2.218597173690796,0.6230642199516296,-1.016449809074402,#
6.656832218170166,-9.973284721374512,0.9786643981933594,-2.5032520294189453,0.7281299233436584,-0.8026533126831055,#
7.185646057128906,-10.188638687133787,0.4642075896263122,-2.586327314376831,0.6817055344581604,-0.6316159963607788,#
7.403393745422363,-9.20279598236084,0.0598205626010894,-2.1330785751342773,0.5876350998878479,-0.4691306948661804,#
7.3052873611450195,-8.547162055969238,0.064606212079525,-1.8142162561416624,0.577861487865448,-0.3726168274879455,#
7.101897716522217,-8.291130065917969,0.1531406491994857,-1.1862653493881226,0.5387672781944275,-0.2028012871742248,#
7.101897716522217,-8.291130065917969,0.1531406491994857,-0.5851916074752808,0.4556920528411865,-0.1160609796643257,#
7.365108013153076,-7.843672752380371,0.2895315289497375,-0.4043808877468109,0.3860554695129394,-0.0830752253532409,#
7.93699312210083,-7.951349258422852,0.696311354637146,-0.1905843466520309,0.2235700935125351,0.0207688063383102,#
8.310273170471191,-8.149953842163086,1.5361920595169067,0.003665083553642,0.1404948681592941,0.128277912735939,#
8.688338279724121,-8.295915603637695,2.3617160320281982,0.1368297785520553,0.1404948681592941,0.1832541674375534,#
8.688338279724121,-8.295915603637695,2.3617160320281982,0.4764608442783355,0.2174616158008575,0.3213056325912475,#
9.126225471496582,-8.274380683898926,2.9527432918548584,0.6035171151161194,0.3054236173629761,0.4019374847412109,#
9.269794464111328,-8.262415885925293,3.5437703132629395,0.5974085927009583,0.5412106513977051,0.5913001298904419,#
9.626325607299805,-8.779266357421875,4.070191383361816,0.2370087206363678,0.8258654475212097,0.8564078211784363,#
10.023534774780272,-9.7005033493042,4.486542701721191,-0.0586413368582725,0.9675819873809814,1.0335536003112793,#
10.023534774780272,-9.7005033493042,4.486542701721191,-0.6755970120429993,1.227802872657776,1.4843589067459106,#
10.07378387451172,-10.920842170715332,4.620540142059326,-0.8637380003929138,1.5002408027648926,1.93272066116333,#
10.25563907623291,-11.53579807281494,4.429114818572998,-0.8295305371284485,1.6602827310562134,2.1746160984039307,#
10.155139923095703,-12.105289459228516,3.8356947898864746,-0.7256865501403809,1.9119518995285036,2.6938364505767822,#
10.042675971984863,-12.906885147094728,3.818945169448853,-0.7330166697502136,2.071993827819824,2.950392246246338,#
9.343972206115724,-12.717851638793944,4.19701099395752,-0.8441908955574036,2.351761817932129,3.506263017654419,#
9.343972206115724,-12.717851638793944,4.19701099395752,-0.8710681796073914,2.5912139415740967,3.969285488128662,#
8.037490844726562,-12.492927551269531,4.199403762817383,-0.8674030900001526,2.743925809860229,4.179416656494141,#
7.085147857666016,-12.112468719482422,3.5700912475585938,-0.7098045349121094,2.9723825454711914,4.5227131843566895,#
6.041877269744873,-11.586047172546388,2.7972097396850586,-0.5326588153839111,3.081113338470459,4.804924488067627,#
4.780859470367432,-11.370694160461426,1.5553346872329712,-0.5021164417266846,3.1898443698883057,4.929537296295166,#
4.780859470367432,-11.370694160461426,1.5553346872329712,-0.4312581717967987,3.2582592964172363,5.129895210266113,#
3.4719858169555664,-10.303494453430176,0.6221339106559753,-0.3371876776218414,3.2130565643310547,5.1543288230896,#
1.852044701576233,-9.05683422088623,-0.2991028428077698,-0.0488677769899368,3.127537727355957,5.0871357917785645,#
0.4905286431312561,-8.085347175598145,-1.0719845294952393,0.3530696928501129,2.965052604675293,4.764608383178711,#
-1.146162033081055,-6.929614543914795,-2.09850549697876,0.4972296357154846,3.0298023223876958,4.641217231750488,#
-2.8139593601226807,-6.470191955566406,-2.711068153381348,0.5974085927009583,2.76347279548645,4.278374195098877,#
-2.8139593601226807,-6.470191955566406,-2.711068153381348,0.7000309228897095,2.5704450607299805,3.7677059173583984,#
-4.194617748260498,-5.522634029388428,-2.026720762252808,0.7159129977226257,2.4336154460906982,3.544135808944702,#
-4.941178798675537,-5.010570526123047,-0.1818545311689376,0.7036960124969482,1.9412726163864136,3.0542361736297607,#
-4.225724697113037,-5.55852746963501,-0.0358923412859439,0.707361102104187,1.6920467615127563,2.637638568878174,#
-2.7421746253967285,-6.051448345184326,-0.0215354058891534,0.6108472347259521,1.5210096836090088,2.461714506149292,#
-2.7421746253967285,-6.051448345184326,-0.0215354058891534,0.0720799788832664,1.3243167400360107,2.065885305404663,#
-1.7754744291305542,-6.534798622131348,-0.0598205626010894,-0.175924003124237,1.2998830080032349,1.8655275106430051,#
-1.8376877307891848,-6.616154670715332,-0.0669990330934524,-0.4104893505573272,1.3560807704925537,1.4550381898880005,#
-2.4981069564819336,-6.015556335449219,-0.064606212079525,-0.3860554695129394,1.3646327257156372,1.0518789291381836,#
-3.0269205570220947,-5.233102798461914,-0.0717846825718879,-0.3445178270339966,1.3072130680084229,0.8808417320251465,#
-3.366701364517212,-5.333601474761963,-0.672383189201355,-0.3213056325912475,1.1080769300460815,0.5717529654502869,#
-3.366701364517212,-5.333601474761963,-0.672383189201355,-0.3579564988613128,0.8808417320251465,0.2480039745569229,#
-3.3236305713653564,-6.336194515228272,-0.6317051649093628,-0.4898994863033294,0.7611156702041626,0.130721315741539,#
-3.1130621433258057,-6.845865249633789,-0.1363908797502517,-0.998124361038208,0.5644228458404541,0.0122169442474842,#
-3.3930225372314453,-6.5659050941467285,-0.2009970992803573,-1.2094775438308716,0.5192201733589172,-0.0427593067288398,#
-4.201796531677246,-5.778666496276856,-0.6197410225868225,-1.3316470384597778,0.5033381581306458,-0.1661504507064819,#
-4.201796531677246,-5.778666496276856,-0.6197410225868225,-1.2693406343460083,0.5338804721832275,-0.2699944972991943,#
-4.701896190643311,-6.192624568939209,-1.057627558708191,-1.180156946182251,0.5570926666259766,-0.3567348122596741,#
-4.395615100860596,-7.508677005767822,-1.576870083808899,-0.929709494113922,0.5607577562332153,-0.549762487411499,#
-3.5270204544067383,-7.877171993255615,-1.7491532564163208,-0.905275583267212,0.4068242609500885,-0.5803048610687256,#
-3.888336658477783,-7.374679565429687,-2.0793628692626958,-1.011563062667847,0.3555130958557129,-0.5448757410049438,#
-3.888336658477783,-7.374679565429687,-2.0793628692626958,-1.3255385160446167,0.4080459475517273,-0.4850127100944519,#
-4.893322467803955,-6.960721015930176,-2.548356056213379,-1.4477078914642334,0.5021164417266846,-0.5045598149299622,#
-5.053641319274902,-7.137789726257324,-3.2159535884857178,-1.4819154739379885,0.4984513521194458,-0.5241069197654724,#
-4.515256404876709,-7.561319828033447,-4.206582069396973,-1.237576603889465,0.4239279925823211,-0.6267292499542236,#
-4.441079139709473,-7.668996810913086,-4.847858428955078,-1.196038842201233,0.3616215586662292,-0.6377245187759399,#
-4.989035129547119,-7.537391662597656,-5.560920238494873,-1.3878449201583862,0.3127537965774536,-0.6291726231575012,#
-4.989035129547119,-7.537391662597656,-5.560920238494873,-1.718924045562744,0.2846547961235046,-0.6829272508621216,#
-4.931607723236084,-7.683353424072266,-6.321837425231934,-1.8569756746292116,0.2333436459302902,-0.7220214009284973,#
-4.244867324829102,-8.056633949279785,-7.128218650817871,-2.025569438934326,0.0305423624813556,-0.7843278050422668,#
-3.651447057723999,-8.082954406738281,-8.00399112701416,-2.0035789012908936,-0.175924003124237,-0.8393040895462036,#
-3.383451223373413,-8.37727165222168,-8.968299865722656,-1.930277228355408,-0.2834331095218658,-0.864959716796875,left
-3.383451223373413,-8.37727165222168,-8.968299865722656,-1.81177282333374,-0.5509842038154602,-0.9077189564704896,left
-3.0388848781585693,-8.63330364227295,-9.518648147583008,-1.822768211364746,-0.7024743556976318,-0.9223793148994446,left
-2.6799612045288086,-8.62612533569336,-9.77946662902832,-1.930277228355408,-1.066539287567139,-0.929709494113922,left
-2.447857618331909,-8.891729354858398,-10.045069694519045,-1.9864752292633057,-1.3841798305511477,-0.9419264793395996,left
-2.344966173171997,-9.166903495788574,-10.403992652893066,-1.9376075267791748,-1.5307831764221191,-0.9688037633895874,left
-2.115255117416382,-9.135796546936035,-10.91127109527588,-1.820324778556824,-1.803221106529236,-1.0054545402526855,left
-2.115255117416382,-9.135796546936035,-10.91127109527588,-1.830098390579224,-2.0561118125915527,-1.0017894506454468,left
-1.34476637840271,-9.755537986755373,-11.624333381652832,-1.8814095258712769,-2.201493501663208,-1.0347752571105957,left
-0.1938186287879943,-9.877571105957031,-12.291929244995115,-1.9217253923416135,-2.565558433532715,-1.119072198867798,left
1.2586246728897097,-9.805787086486816,-12.772887229919434,-1.9253904819488523,-3.0126984119415283,-1.1679399013519287,left
1.7706886529922483,-10.114461898803713,-13.294522285461426,-1.92294716835022,-3.239933729171753,-1.2033690214157104,left
1.7706886529922483,-10.114461898803713,-13.294522285461426,-1.9486026763916016,-3.6895172595977774,-1.3878449201583862,left
2.7038896083831787,-10.439885139465332,-14.163116455078123,-1.9864752292633057,-3.908200740814209,-1.4306042194366455,left
3.9529430866241455,-10.549955368041992,-14.6608247756958,-2.087875843048096,-4.466515064239502,-1.5246747732162476,left
5.111069202423096,-10.930414199829102,-13.50987720489502,-2.0292346477508545,-5.217857360839844,-1.7372496128082275,left
6.664010524749756,-11.365907669067385,-12.342178344726562,-1.8899613618850708,-5.638119697570801,-1.8887397050857544,left
6.664010524749756,-11.365907669067385,-12.342178344726562,-1.360967755317688,-6.550725936889648,-2.2320358753204346,left
9.17886734008789,-13.442877769470217,-8.116454124450684,-0.3371876776218414,-7.382699966430664,-2.7231569290161133,left
12.696316719055176,-16.57508087158203,3.079562902450561,0.1429382413625717,-7.600161552429199,-2.721935510635376,left
8.403593063354492,-16.182659149169922,0.8015955686569214,-0.1661504507064819,-7.445005893707275,-1.9754799604415891,left
4.541577339172363,-14.12243938446045,-0.138783723115921,-0.6462763547897339,-7.13958215713501,-1.3951750993728638,left
7.960920810699463,-14.076974868774414,8.695517539978027,-0.9578084945678712,-6.62524938583374,-1.0750911235809326,left
7.960920810699463,-14.076974868774414,8.695517539978027,-0.5338804721832275,-6.4065656661987305,-0.9626952409744264,left
10.33938694000244,-14.342578887939451,17.584854125976562,-0.3432961404323578,-6.3686933517456055,-0.7684457898139954,left
4.831109046936035,-10.870593070983888,12.382857322692873,0.2199050188064575,-4.847683906555176,-0.2467822879552841,left
0.9188438653945924,-9.253045082092283,6.7070817947387695,0.2809897363185882,-3.665083408355713,0.1331647038459777,left
3.129812002182007,-10.176674842834473,12.67956829071045,0.2895416021347046,-3.3364474773406982,0.130721315741539,left
3.129812002182007,-10.176674842834473,12.67956829071045,0.3921639025211334,-3.370655059814453,0.2309002727270126,left
4.369294166564941,-9.772287368774414,14.866606712341309,0.388498842716217,-3.1605236530303955,0.4520269632339477,left
2.84506630897522,-7.853243827819824,14.009976387023926,1.0750911235809326,-2.1220834255218506,0.4556920528411865,#
1.3136597871780396,-4.292723655700684,11.461621284484863,1.435490965843201,-1.2290246486663818,0.261442631483078,#
0.3373879790306091,-3.833301782608032,9.152545928955078,1.16427481174469,-0.8173136115074158,0.3555130958557129,#
0.5670989155769348,-5.529813289642334,8.382057189941406,0.6291726231575012,-0.2932066619396209,0.4385882914066314,#
0.5670989155769348,-5.529813289642334,8.382057189941406,0.0354291386902332,-0.0219905003905296,0.4813476204872131,#
0.7920243144035339,-6.594619274139404,7.788637638092041,-0.1062874197959899,0.1172826737165451,0.4984513521194458,#
0.2344966232776641,-6.666403770446777,6.582655429840088,0.0195471122860908,0.4935645759105682,0.3860554695129394,#
-0.2967100143432617,-6.833901405334473,5.26899528503418,0.3298574984073639,0.8612945675849915,0.2309002727270126,#
0.0598205626010894,-7.472784996032715,3.99362063407898,0.5570926666259766,0.9797989726066588,0.1429382413625717,#
0.0598205626010894,-7.472784996032715,3.99362063407898,1.0433270931243896,1.1703832149505615,0.0623064190149307,#
1.0193424224853516,-7.513463020324707,2.6560330390930176,1.281557559967041,1.1777135133743286,0.0647498071193695,#
1.8664016723632808,-6.647261142730713,0.9762716889381408,1.803221106529236,1.2131426334381104,0.0012216945178806,#
1.4500504732131958,-5.501099109649658,0.0526420958340168,1.9486026763916016,1.3756279945373535,-0.1685938388109207,#
0.4618147313594818,-6.056234359741211,-0.3948157429695129,1.8435369729995728,1.51734459400177,-0.2761029601097107,#
0.5024927258491516,-6.556333541870117,-0.3062812983989715,1.6883817911148071,1.7115939855575562,-0.4593571126461029,#
0.5024927258491516,-6.556333541870117,-0.3062812983989715,1.5796509981155396,1.571099042892456,-0.5680879354476929,#
0.8398807048797607,-6.302694320678711,-0.6604190468788147,1.6248536109924316,1.4208307266235352,-0.6731536388397217,#
0.1004985496401786,-6.348158359527588,-1.3663017749786377,2.0121307373046875,1.4159438610076904,-1.1667182445526123,#
-1.3399806022644043,-6.044269561767578,-1.6390833854675293,2.129413604736328,1.595533013343811,-1.4953540563583374,#
-1.1102697849273682,-5.816952228546143,-1.706082463264465,1.7873390913009644,1.8496454954147337,-2.0781023502349854,#
-1.1102697849273682,-5.816952228546143,-1.706082463264465,1.2424633502960205,1.6578394174575806,-2.3615353107452397,#
-0.236889436841011,-5.886343479156494,-2.1200408935546875,0.8893935680389404,1.3377554416656494,-2.5386812686920166,#
-0.9188438653945924,-8.336593627929688,-2.7661027908325195,0.31641885638237,0.9724688529968262,-3.260702610015869,#
-1.4644075632095337,-11.174481391906738,-2.51007080078125,-0.3530696928501129,1.2241379022598269,-4.167200088500977,#
-0.0598205626010894,-11.995219230651855,-1.0959126949310305,-0.8955020904541016,1.2620103359222412,-4.471402168273926,#
-0.0598205626010894,-11.995219230651855,-1.0959126949310305,-1.4892456531524658,1.012784719467163,-4.723070621490479,#
2.021935224533081,-11.234301567077637,0.4809573292732239,-1.3866231441497805,0.7623373866081238,-4.858679294586182,#
2.565105676651001,-11.552547454833984,-0.1794617027044296,-0.7537854909896851,0.5485408306121826,-5.232517242431641,#
1.8161523342132568,-17.343177795410156,0.380458801984787,0.1673721522092819,0.7317950129508972,-5.877572059631348,#
2.57228422164917,-17.86481475830078,0.2225324809551239,0.1380514800548553,0.8612945675849915,-6.129241466522217,#
4.051048755645752,-16.031911849975586,-0.5718846321105957,-0.6646018028259277,1.035996913909912,-5.732190608978272,#
4.051048755645752,-16.031911849975586,-0.5718846321105957,-0.471574068069458,0.8038749694824219,-5.602690696716309,#
5.706881999969482,-14.148760795593262,-0.916451096534729,-0.2541124522686004,0.6193991303443909,-5.652780532836914,#
6.4079790115356445,-13.885550498962402,-1.124626636505127,0.200357899069786,0.1209477484226226,-5.469526290893555,#
6.056234359741211,-13.488340377807615,-0.9284151792526244,-0.0525328628718853,-0.0684148892760276,-5.01016902923584,#
6.486942291259766,-13.11984634399414,-0.0215354058891534,-0.7244647741317749,-0.1148392781615257,-4.870895862579346,#
6.486942291259766,-13.11984634399414,-0.0215354058891534,-2.544789552688598,-0.0965138673782348,-4.569137096405029,#
7.460821151733398,-14.301901817321776,0.6939185857772827,-3.224051713943481,-0.0794101431965828,-4.357784271240234,#
7.714460372924805,-15.962519645690918,0.6556334495544434,-3.612550735473633,0.1319430023431778,-3.85566782951355,#
7.042076587677002,-14.313865661621094,0.5814558863639832,-2.7781333923339844,0.3970507085323334,-3.513593435287476,#
7.16650390625,-12.890134811401367,0.4689932465553283,-2.365200519561768,0.4324798583984375,-3.307126998901367,#
7.621140003204346,-12.40439224243164,0.2273181527853012,-1.9363857507705688,0.3481829464435577,-2.7463691234588623,#
7.621140003204346,-12.40439224243164,0.2273181527853012,-1.8252116441726685,0.2492256760597229,-2.3065593242645264,#
7.939385414123535,-11.10030460357666,0.7513462901115417,-1.7360278367996216,0.2504473626613617,-2.1330785751342773,#
7.549355506896973,-11.55015468597412,0.5910272002220154,-1.6175235509872437,0.3750602006912231,-1.8887397050857544,#
6.6831536293029785,-9.710074424743652,1.9908283948898315,-1.3939534425735474,0.6316159963607788,-1.4257174730300903,#
7.16650390625,-10.11924648284912,1.794616937637329,-2.010909080505371,0.8270871639251709,-1.0262233018875122,#
7.16650390625,-10.11924648284912,1.794616937637329,-2.9589438438415527,0.8637380003929138,-0.7769976854324341,#
7.917850017547607,-10.583455085754396,0.9188438653945924,-3.1715188026428223,0.7562289237976074,-0.7049177289009094,#
7.587640762329102,-9.650253295898438,0.2057827562093734,-2.7903501987457275,0.7354600429534912,-0.4727957546710968,#
7.200003147125244,-8.860621452331543,0.1363908797502517,-1.94249427318573,0.730573296546936,-0.2321219593286514,#
7.676175117492676,-8.456235885620117,0.638883650302887,-1.4953540563583374,0.652384877204895,-0.1343863904476165,#
7.676175117492676,-8.456235885620117,0.638883650302887,-0.7207997441291809,0.4446967840194702,0.031764056533575,#
8.142775535583496,-7.843672752380371,1.2729815244674685,-0.4642439186573028,0.3726168274879455,0.1905843466520309,#
8.511269569396973,-7.781459331512451,2.048256158828736,-0.2223483920097351,0.3457395434379577,0.2834331095218658,#
9.07119083404541,-8.164310455322266,3.2518460750579834,-0.0659715011715889,0.4300364553928375,0.5118899941444397,#
9.633503913879396,-8.221738815307617,3.8524444103240967,-0.007330167107284,0.5326588153839111,0.6413896083831787,#
10.076176643371582,-8.073383331298828,3.431307554244995,0.1075091138482093,0.84541255235672,0.8625163435935974,#
10.076176643371582,-8.073383331298828,3.431307554244995,0.0452026948332786,1.2070342302322388,1.1264023780822754,#
10.54038429260254,-8.15234661102295,3.541377305984497,-0.1185043603181839,1.3707412481307983,1.29499614238739,#
10.944771766662598,-8.606983184814453,3.8524444103240967,-0.4190412163734436,1.6932685375213623,1.640735745429993,#
11.291730880737305,-9.150154113769531,4.01037073135376,-0.7916580438613892,2.006022453308105,2.0695505142211914,#
11.447263717651367,-9.724431037902832,3.988835573196411,-0.9626952409744264,2.1685078144073486,2.3016724586486816,#
11.447263717651367,-9.724431037902832,3.988835573196411,-1.178935170173645,2.414068460464477,2.670624256134033,#
10.604989051818848,-10.009177207946776,4.283152580261231,-1.233911395072937,2.586327314376831,2.848991632461548,#
9.882357597351074,-9.985249519348145,4.677968502044678,-1.225359559059143,2.9589438438415527,3.286358118057251,#
9.049654960632324,-10.191031455993652,4.070191383361816,-1.2766708135604858,3.239933729171753,3.671191930770874,#
7.841279983520508,-10.24606704711914,3.3403804302215576,-1.3169866800308228,3.366989850997925,3.832455635070801,#
6.63051176071167,-10.329815864562988,2.888136863708496,-1.4098354578018188,3.5710129737854004,4.07801628112793,#
6.63051176071167,-10.329815864562988,2.888136863708496,-1.4208307266235352,3.663861989974976,4.293034553527832,#
5.335994720458984,-9.944571495056152,2.426322221755981,-1.3805147409439087,3.678522109985352,4.382217884063721,#
4.091726779937744,-9.542576789855955,1.6677974462509155,-1.1202938556671145,3.679743766784668,4.459184646606445,#
3.0149567127227783,-8.49452018737793,0.4809573292732239,-0.7220214009284973,3.651644706726074,4.4567413330078125,#
2.1104695796966557,-7.913064479827881,-0.0526420958340168,-0.4960079491138458,3.612550735473633,4.437194347381592,#
2.1104695796966557,-7.913064479827881,-0.0526420958340168,-0.1881409436464309,3.5563526153564453,4.316246509552002,#
0.760917603969574,-7.180860996246338,-1.730010747909546,-0.2040229737758636,3.5258102416992188,4.197742462158203,#
-0.9308080077171326,-7.28375244140625,-3.414557933807373,-0.4410317242145538,3.6345410346984863,4.041365146636963,#
-3.239881753921509,-7.884350299835205,-3.7016968727111816,-0.549762487411499,3.428074598312378,3.709064483642578,#
-5.235496044158936,-7.482356548309326,-1.8831514120101929,-0.5607577562332153,3.417079448699951,3.4989328384399414,#
-5.235496044158936,-7.482356548309326,-1.8831514120101929,-0.4801259338855743,3.0102550983428955,3.125094413757324,#
-5.860023021697998,-6.336194515228272,-0.9834501147270204,-0.4618005454540252,2.625421524047852,2.924736499786377,#
-5.620740413665772,-5.079962730407715,-0.4905286431312561,-0.5864133238792419,2.4482758045196533,2.8477697372436523,#
-4.29750919342041,-6.1256256103515625,-0.5120640397071838,-1.045770525932312,2.224705696105957,2.5582282543182373,#
-2.967100143432617,-8.484949111938477,-1.765903115272522,-1.202147364616394,2.104979515075684,2.280903577804565,#
-2.8139593601226807,-8.623733520507812,-3.704089403152466,-1.211920976638794,1.7824522256851196,1.6211885213851929,#
-2.8139593601226807,-8.623733520507812,-3.704089403152466,-0.9785772562026978,1.483137130737305,1.2986613512039185,#
-3.675375461578369,-6.3529438972473145,-4.869394302368164,-0.8417474627494812,1.3487507104873655,1.2143642902374268,#
-4.59421968460083,-4.443471908569336,-5.3694939613342285,-0.7171346545219421,1.0421053171157837,0.8344173431396484,#
-4.180261135101318,-4.852644443511963,-5.438885688781738,-1.0396620035171509,0.6658235192298889,0.3897205293178558,#
-3.259024381637573,-6.774080753326416,-5.343173027038574,-1.280335783958435,0.4679089784622192,0.1954711079597473,#
-3.259024381637573,-6.774080753326416,-5.343173027038574,-1.815437912940979,0.1575985848903656,-0.0855186134576797,#
-2.675175428390503,-8.12841796875,-5.773881435394287,-1.9473810195922847,0.0952921733260154,-0.1466033309698104,#
-2.785245418548584,-7.537391662597656,-6.257230758666992,-2.0964276790618896,-0.0024433890357613,-0.0977355539798736,#
-3.046063184738159,-6.80040168762207,-6.273981094360352,-1.9864752292633057,-0.0488677769899368,-0.1710372269153595,#
-3.464807271957397,-6.434299945831299,-6.745367050170898,-1.924168825149536,-0.0879620015621185,-0.2321219593286514,#
-3.814159393310547,-6.441478729248047,-7.214360237121582,-1.7787871360778809,-0.1673721522092819,-0.3213056325912475,#
-3.814159393310547,-6.441478729248047,-7.214360237121582,-1.6724997758865356,-0.2382304221391677,-0.4446967840194702,#
-3.31166672706604,-6.774080753326416,-8.11406135559082,-1.6639479398727417,-0.2919849753379822,-0.4960079491138458,#
-2.407179594039917,-7.161717891693115,-8.915657043457031,-1.8765227794647217,-0.5143333673477173,-0.5656445622444153,#
-2.2923240661621094,-7.525426864624023,-9.399007797241213,-2.1367435455322266,-0.712247908115387,-0.7464553117752075,#
-2.5459630489349365,-7.664210796356201,-10.042675971984863,-2.2430310249328613,-0.8075400590896606,-0.8380824327468872,#
-2.5459630489349365,-7.664210796356201,-10.042675971984863,-2.300450563430786,-1.0201148986816406,-1.022558331489563,#
-2.1583259105682373,-7.893921852111816,-11.042876243591309,-2.2918989658355717,-1.1606097221374512,-1.1141853332519531,#
-1.6654045581817627,-8.367700576782227,-12.220145225524902,-2.318776130676269,-1.4892456531524658,-1.2913310527801514,#
-1.7730815410614014,-9.04726219177246,-12.973884582519531,-2.528907537460327,-1.81177282333374,-1.4819154739379885,#
-0.0789631456136703,-10.131211280822754,-13.933405876159668,-2.6107609272003174,-1.9999139308929443,-1.6077499389648438,#
2.0793628692626958,-10.808380126953123,-14.342578887939451,-2.62297797203064,-2.577775239944458,-1.8447586297988887,left
2.0793628692626958,-10.808380126953123,-14.342578887939451,-2.5875487327575684,-3.211834669113159,-1.987696886062622,left
1.9860427379608157,-11.097911834716797,-13.86640739440918,-2.6278648376464844,-3.546579122543335,-2.070772171020508,left
3.3092737197875977,-11.085947036743164,-13.610376358032228,-2.4751532077789307,-4.238058090209961,-2.2027151584625244,left
5.422136306762695,-10.817951202392578,-13.847265243530272,-2.195384979248047,-4.615561485290527,-2.238144397735596,left
7.53021240234375,-10.341779708862305,-13.16770362854004,-1.374406337738037,-5.2838287353515625,-2.3297715187072754,left
7.53021240234375,-10.341779708862305,-13.16770362854004,-0.6646018028259277,-6.024175643920898,-2.400629758834839,left
8.767301559448242,-11.277373313903809,-10.423135757446287,-0.3713951408863067,-6.462763786315918,-2.542346239089966,left
9.83689308166504,-12.052647590637209,-6.522834300994873,-0.0598630309104919,-7.221436023712158,-2.557006359100342,left
10.121639251708984,-12.533604621887209,-1.7874385118484497,0.2516690790653229,-7.644142150878906,-2.4482758045196533,left
9.600004196166992,-11.43529987335205,-0.9810572862625122,0.3432961404323578,-7.715000629425049,-2.3480966091156006,left
9.600004196166992,-11.43529987335205,-0.9810572862625122,0.258999228477478,-7.570840835571289,-1.926612138748169,left
8.37727165222168,-11.389835357666016,-0.6340980529785156,0.3005368411540985,-7.520751476287842,-1.738471269607544,left
11.387442588806152,-13.239487648010254,7.915457248687744,0.200357899069786,-7.634368896484375,-1.6932685375213623,left
11.47836971282959,-12.53839111328125,10.315458297729492,-0.003665083553642,-7.017412662506104,-1.192373752593994,left
6.226124286651611,-10.315458297729492,6.752545356750488,-0.1966928243637085,-6.068156719207764,-0.6817055344581604,left
4.060619831085205,-9.324830055236816,5.649453639984131,-0.2602209150791168,-4.672981262207031,-0.0842969194054603,left
4.060619831085205,-9.324830055236816,5.649453639984131,-0.0635281130671501,-4.373666286468506,0.0293206684291362,left
5.874379634857178,-10.231709480285645,7.8795647621154785,0.0720799788832664,-4.494614124298096,0.1600419729948043,left
7.094719409942627,-10.916057586669922,11.813365936279297,-0.0586413368582725,-4.423755645751953,0.860072910785675,left
5.32403039932251,-9.781858444213867,13.98126220703125,0.2504473626613617,-3.679743766784668,1.045770525932312,left
3.0245277881622314,-6.65204668045044,12.839885711669922,0.5399889945983887,-3.144641637802124,1.0201148986816406,left
3.0245277881622314,-6.65204668045044,12.839885711669922,0.652384877204895,-2.265021562576294,1.1606097221374512,left
1.1581261157989502,-4.878964900970459,10.928021430969238,0.4886777997016907,-1.940050840377808,1.1826002597808838,left
0.1531406491994857,-5.699703216552734,10.112068176269531,-0.1441599577665329,-1.4367127418518066,0.9810206294059752,left
-0.2895315289497375,-7.262216091156006,9.870393753051758,-1.011563062667847,-1.1178505420684814,0.8075400590896606,left
-0.9954141974449158,-8.559126853942871,9.523433685302734,-1.2326897382736206,-0.9309312105178832,0.7342383861541748,left
-1.2610174417495728,-8.25284481048584,8.731410026550293,-0.943148136138916,-0.5473191142082214,0.5131116509437561,left
-1.2610174417495728,-8.25284481048584,8.731410026550293,-0.3115321099758148,-0.1197260618209838,0.2980934381484985,left
-1.7012970447540283,-7.389035701751709,7.113861560821533,-0.0378725305199623,0.1062874197959899,0.1832541674375534,left
-1.7180466651916504,-7.16650390625,5.44845724105835,0.1111741960048675,0.5155550837516785,-0.0525328628718853,left
-0.9499505758285522,-7.795816421508789,4.59421968460083,0.0635281130671501,0.7452336549758911,-0.2028012871742248,left
-0.4067798554897308,-8.894121170043945,3.780659914016724,-0.0989572554826736,0.7989881634712219,-0.21135313808918,#
-0.4067798554897308,-8.894121170043945,3.780659914016724,-0.0549762547016143,0.9492565989494324,-0.1453816443681717,#
0.1339980661869049,-9.58325481414795,3.036492109298706,0.0745233595371246,1.0250016450881958,-0.0989572554826736,#
0.8901299238204956,-9.571290969848633,2.63449764251709,0.5729747414588928,1.0616525411605835,0.0342074446380138,#
1.7443678379058838,-8.319844245910645,2.617748022079468,1.381736397743225,0.9883508682250975,0.1331647038459777,#
1.9860427379608157,-6.802794933319092,1.8281164169311523,1.7763437032699585,0.9822423458099364,0.1685938388109207,#
1.9860427379608157,-6.802794933319092,1.8281164169311523,2.50813889503479,1.1764918565750122,0.0928487852215766,#
1.5649060010910034,-5.544170379638672,1.1700903177261353,2.7414824962615967,1.5161229372024536,-0.0610847249627113,#
1.2299107313156128,-5.01296329498291,0.8901299238204956,2.629086494445801,1.6395140886306765,-0.1197260618209838,#
0.9930213689804076,-5.06799840927124,1.2083754539489746,2.195384979248047,1.706707239151001,-0.2186833024024963,#
0.2488535493612289,-5.831308364868164,1.227518081665039,2.002357244491577,1.650509238243103,-0.3701734542846679,#
-0.8350951075553894,-6.345765590667725,0.7082754969596863,1.626075267791748,1.718924045562744,-0.9211575984954834,#
-0.8350951075553894,-6.345765590667725,0.7082754969596863,1.1435059309005735,2.071993827819824,-1.4477078914642334,#
-1.1222338676452637,-6.664010524749756,0.117248311638832,0.9553651213645936,2.129413604736328,-1.6541743278503418,#
-0.5503491759300232,-6.324230670928955,-0.1531406491994857,0.6694886088371277,1.9486026763916016,-1.9767017364501955,#
-1.0767701864242554,-7.130610942840576,-1.0169496536254885,0.4373666048049927,1.61874520778656,-2.5472328662872314,#
-2.117647886276245,-9.521041870117188,-1.3136597871780396,0.2907632887363434,1.650509238243103,-2.9809346199035645,#
-2.117647886276245,-9.521041870117188,-1.3136597871780396,-0.1881409436464309,1.875301003456116,-3.82634711265564,#
-1.3232309818267822,-10.54038429260254,-1.105484127998352,-0.5289937257766724,1.871635913848877,-4.060912609100342,#
1.0217353105545044,-9.851251602172852,-0.4067798554897308,-0.971247136592865,1.257123589515686,-4.198963642120361,#
2.390429735183716,-9.03290557861328,-1.4141581058502195,-0.7941014170646667,0.726908266544342,-4.455520153045654,#
1.4691929817199707,-12.287144660949709,-1.7371891736984253,-0.7085827589035034,0.7000309228897095,-4.698637008666992,#
1.66301167011261,-15.54377555847168,-1.37587308883667,-0.7317950129508972,0.9810206294059752,-5.410884857177734,#
1.66301167011261,-15.54377555847168,-1.37587308883667,-1.3035480976104736,1.0983033180236816,-5.607577323913574,#
3.728017807006836,-16.524831771850586,-1.3519448041915894,-1.3707412481307983,0.9089407324790956,-5.432875633239746,#
5.154139995574951,-14.510075569152832,-1.3232309818267822,-0.6792621612548828,0.5949652194976807,-5.200753211975098,#
5.347958564758301,-12.808778762817385,-2.1415762901306152,-0.069636583328247,0.3432961404323578,-5.146998882293701,#
5.228317260742188,-13.411770820617676,-1.3519448041915894,0.0256555844098329,0.1478250324726104,-5.14455509185791,#
5.228317260742188,-13.411770820617676,-1.3519448041915894,-0.4960079491138458,-0.0940704718232154,-5.002838611602783,#
5.477170467376709,-15.59402561187744,0.973878800868988,-0.95658677816391,-0.0830752253532409,-4.873339653015137,#
6.309873104095459,-16.905292510986328,2.0793628692626958,-1.1813786029815674,0.0085518611595034,-4.729179382324219,#
5.982056617736816,-14.835500717163086,1.672582983970642,-0.4935645759105682,-0.0720799788832664,-4.4567413330078125,#
6.082554817199707,-12.294322967529297,0.4474578499794006,-0.2626643180847168,-0.2333436459302902,-4.255161762237549,#
7.025327682495117,-12.492927551269531,0.5886343717575073,-0.5607577562332153,-0.53143709897995,-3.6724135875701904,#
7.025327682495117,-12.492927551269531,0.5886343717575073,-1.1312891244888306,-0.730573296546936,-3.0383541584014893,#
7.58524751663208,-14.196616172790527,2.1343977451324463,-1.3304253816604614,-0.6927007436752319,-2.7646946907043457,#
6.886543273925781,-14.189438819885254,3.426522016525269,-1.2583452463150024,-0.3689517080783844,-2.392077684402466,#
6.197411060333252,-12.576675415039062,3.34995174407959,-0.7757760286331177,-0.1075091138482093,-2.015795946121216,#
6.798008918762207,-10.612168312072754,3.617947816848755,-0.5888567566871643,-0.0794101431965828,-1.817881464958191,#
6.798008918762207,-10.612168312072754,3.617947816848755,-0.7831061482429504,-0.0488677769899368,-1.3120999336242676,#
7.558926582336426,-11.459227561950684,4.728217601776123,-1.0103412866592407,0.1185043603181839,-1.1105202436447144,#
7.013362884521484,-10.090532302856444,4.814359188079834,-2.020682573318481,0.6047387719154358,-0.5680879354476929,#
6.458228588104248,-10.068997383117676,4.582255363464356,-2.9870429039001465,0.9956809878349304,-0.1649287492036819,#
6.288337707519531,-10.11924648284912,3.881158351898194,-3.0566794872283936,1.0201148986816406,-0.0855186134576797,#
6.910471439361572,-9.69093132019043,3.838087558746338,-2.434837102890014,0.9150491952896118,0.2284568697214126,#
6.910471439361572,-9.69093132019043,3.838087558746338,-1.5466653108596802,0.7562289237976074,0.4813476204872131,#
7.666603565216064,-9.011369705200195,4.220939159393311,-1.2070342302322388,0.7171346545219421,0.5668662190437317,#
8.279166221618652,-8.721837997436523,4.424329280853272,-0.6963658928871155,0.7427902817726135,0.73912513256073,#
8.958727836608887,-8.752944946289062,4.168296813964844,-0.5118899941444397,0.8148701786994934,0.8222004175186157,#
9.482755661010742,-8.922836303710938,4.453042984008789,-0.3677300214767456,0.9639169573783876,1.031110167503357,#
9.482755661010742,-8.922836303710938,4.453042984008789,-0.3836120665073395,1.0421053171157837,1.2595670223236084,#
