accX,accY,accZ,gyrX,gyrY,gyrZ,annotation
1.1150553226470947,-4.3381876945495605,-1.7850456237792969,-0.0891837030649185,0.7000309228897095,-0.7525637745857239,#
8.173882484436035,4.436293125152588,-4.663610935211182,1.6786081790924072,-0.6108472347259521,-1.3072130680084229,#
14.68714427947998,-5.292923927307129,-6.525227069854736,0.0818535313010215,0.1612636744976043,-0.9736905097961426,#
9.803394317626951,-7.848458290100098,-3.0939197540283203,-0.5668662190437317,0.4080459475517273,-0.8405258059501648,#
17.36710548400879,0.5694918036460876,-2.641676187515259,0.8344173431396484,-0.4031591713428497,-1.1777135133743286,#
17.36710548400879,0.5694918036460876,-2.641676187515259,1.2168077230453491,-0.2431172132492065,-1.3096565008163452,#
16.835899353027344,3.369094133377075,-4.369294166564941,-0.0378725305199623,0.6658235192298889,-1.0702043771743774,#
13.92862033843994,2.909672498703003,-6.757331371307373,-1.0494356155395508,0.9150491952896118,-0.6536065340042114,#
14.622538566589355,4.510470867156982,-4.098905563354492,-1.1667182445526123,1.0616525411605835,-0.3982723951339721,#
14.53639793395996,5.92223596572876,-2.2947168350219727,-1.4159438610076904,1.2241379022598269,-0.0232121963053941,#
13.37109375,5.790630340576172,-0.7752745151519775,-1.288887619972229,1.0811996459960938,0.5131116509437561,#
13.37109375,5.790630340576172,-0.7752745151519775,-1.220472812652588,0.919935941696167,0.6927007436752319,#
12.55274772644043,6.022734642028809,-0.3373879790306091,-1.401283621788025,0.6670452356338501,1.0408836603164673,#
11.464014053344728,5.845665454864502,-0.1004985496401786,-1.706707239151001,0.6169556975364685,1.336533784866333,#
10.463812828063965,4.716253280639648,-0.0047856452874839,-2.224705696105957,0.6499415040016174,1.469698429107666,#
9.518648147583008,3.615554809570313,-0.0478564500808715,-2.7097182273864746,0.7660024166107178,1.7396929264068604,#
9.518648147583008,3.615554809570313,-0.0478564500808715,-2.8795340061187744,0.8564078211784363,1.8899613618850708,#
8.906085968017578,2.806780815124512,0.0861416235566139,-3.020028591156006,1.1044118404388428,2.1281917095184326,#
8.35573673248291,1.4189438819885254,0.1339980661869049,-2.91374135017395,1.4037269353866575,2.288233757019043,#
8.173882484436035,-0.0143569353967905,0.1076770275831222,-2.776911497116089,1.5637688636779783,2.354205369949341,#
8.049454689025879,0.5790630578994751,-0.2344966232776641,-2.563115119934082,1.8643057346343996,2.50813889503479,#
8.049454689025879,0.5790630578994751,-0.2344966232776641,-2.288233757019043,2.1220834255218506,2.5411245822906494,#
7.798208713531494,0.7441678047180176,-0.4570291042327881,-2.192941665649414,2.2149322032928467,2.4751532077789307,#
7.637890338897705,-0.4354937374591827,-0.9116654396057128,-1.8288766145706177,2.337101697921753,2.296785831451416,#
7.992027282714844,-1.5864413976669312,-1.5960125923156738,-1.7115939855575562,2.406738042831421,2.201493501663208,#
8.528019905090332,-1.4644075632095337,-1.8999011516571045,-1.6920467615127563,2.5240206718444824,1.9999139308929443,#
8.568697929382324,-0.882951557636261,-1.730010747909546,-1.8801878690719604,2.533794403076172,1.775122046470642,#
8.568697929382324,-0.882951557636261,-1.730010747909546,-1.926612138748169,2.3627572059631348,1.6920467615127563,#
7.822136878967285,-1.4787644147872925,-2.47896409034729,-1.7274760007858276,1.97181499004364,1.4196090698242188,#
7.22153902053833,-2.3162522315979004,-3.548555850982666,-1.640735745429993,1.6724997758865356,1.0787562131881714,#
6.592226982116699,-2.2947168350219727,-3.6370904445648193,-1.6871600151062012,1.549108624458313,0.926044464111328,#
6.039484024047852,-2.816352128982544,-3.259024381637573,-1.7812305688858032,1.2791141271591189,0.5961868762969971,#
6.039484024047852,-2.816352128982544,-3.259024381637573,-1.7824522256851196,0.8295305371284485,0.2907632887363434,#
6.147161483764648,-3.572484016418457,-2.421536445617676,-1.718924045562744,0.601073682308197,0.1795890927314758,#
6.544370174407959,-4.115654945373535,-1.4715858697891235,-1.4232741594314575,0.2284568697214126,-0.0097735561430454,#
6.63051176071167,-4.3142595291137695,-0.8374879360198975,-1.240019917488098,0.0806318372488021,-0.0842969194054603,#
6.386443614959717,-4.321437358856201,-0.3134597539901733,-0.7843278050422668,-0.1685938388109207,-0.2137965410947799,#
6.240481376647949,-4.058227062225342,0.0789631456136703,-0.3188622593879699,-0.4019374847412109,-0.3115321099758148,#
6.240481376647949,-4.058227062225342,0.0789631456136703,-0.0635281130671501,-0.4874561131000519,-0.3481829464435577,#
6.190232276916504,-4.039084434509277,0.5742774605751038,0.4508052766323089,-0.5754181146621704,-0.3542913794517517,#
6.199803352355957,-4.02472734451294,1.1748759746551514,0.8991671204566956,-0.624285876750946,-0.3017585575580597,#
6.458228588104248,-3.931407451629639,1.5026925802230835,1.087308049201965,-0.6267292499542236,-0.2687727808952331,#
6.671189785003662,-3.87876558303833,1.4931212663650513,1.4391560554504397,-0.6022953391075134,-0.1832541674375534,#
6.671189785003662,-3.87876558303833,1.4931212663650513,1.6248536109924316,-0.5595360994338989,-0.1417165547609329,#
6.776473522186279,-3.5820553302764893,1.5720844268798828,1.996248722076416,-0.4508052766323089,-0.0427593067288398,#
7.2813591957092285,-3.1657044887542725,1.9334007501602173,2.225927352905273,-0.4068242609500885,0.0085518611595034,#
8.202595710754395,-2.8809585571289062,2.4095723628997803,2.2747950553894043,-0.3958290219306946,0.0097735561430454,#
9.04726219177246,-2.756531953811645,3.046063184738159,2.2613565921783447,-0.2980934381484985,-0.0085518611595034,#
9.135796546936035,-2.7804601192474365,2.9168508052825928,2.1795029640197754,-0.1380514800548553,-0.0598630309104919,#
9.135796546936035,-2.7804601192474365,2.9168508052825928,2.080545663833618,-0.0623064190149307,-0.0745233595371246,#
8.757731437683105,-2.3090739250183105,2.4047868251800537,1.761683464050293,0.0171037223190069,-0.0842969194054603,#
8.74337387084961,-1.8376877307891848,2.244467735290528,1.5601038932800293,0.0061084721237421,-0.100178949534893,#
9.42772102355957,-1.7443678379058838,1.9740787744522093,1.0824213027954102,-0.0561979450285434,-0.1417165547609329,#
9.710074424743652,-1.7850456237792969,1.9453648328781128,0.5729747414588928,-0.0195471122860908,-0.1404948681592941,#
9.710074424743652,-1.7850456237792969,1.9453648328781128,0.3359659910202026,-0.0024433890357613,-0.1380514800548553,#
9.856036186218262,-1.84965181350708,2.100898265838623,-0.040315918624401,-0.0378725305199623,-0.1844758540391922,#
10.643275260925291,-2.122433662414551,2.4023938179016118,-0.1734806150197982,-0.1221694499254226,-0.2980934381484985,#
11.545370101928713,-2.543570280075073,2.4885356426239014,-0.1563768982887268,-0.1563768982887268,-0.3555130958557129,#
12.0335054397583,-2.691925525665283,2.4335007667541504,-0.0024433890357613,-0.1710372269153595,-0.4544703662395477,#
12.0335054397583,-2.691925525665283,2.4335007667541504,0.2040229737758636,-0.1575985848903656,-0.5326588153839111,#
12.256037712097168,-2.3976082801818848,1.9716858863830569,0.3249707520008087,-0.1649287492036819,-0.5717529654502869,#
13.294522285461426,-2.210968255996704,1.65583336353302,0.5070031881332397,-0.1771456897258758,-0.6487197875976562,#
14.048262596130373,-2.2157537937164307,1.6271194219589231,0.5668662190437317,-0.1160609796643257,-0.6572716236114502,#
12.351749420166016,-1.8831514120101929,1.8592231273651123,0.5754181146621704,0.1514901220798492,-0.5241069197654724,#
10.497312545776367,-1.3495519161224363,2.026720762252808,0.448361873626709,0.3078669905662536,-0.3054236173629761,#
10.497312545776367,-1.3495519161224363,2.026720762252808,0.3677300214767456,0.3200839459896087,-0.2137965410947799,#
9.607183456420898,-0.9044869542121888,2.0721843242645264,0.2199050188064575,0.2932066619396209,-0.0171037223190069,#
9.12383270263672,-0.8685945868492126,2.2372891902923584,0.1844758540391922,0.3139754831790924,0.1429382413625717,#
8.939584732055664,-1.1988041400909424,2.1655044555664062,0.2773246467113495,0.3286358118057251,0.2076880484819412,#
8.650053977966309,-1.5912269353866575,2.313859462738037,0.5766398310661316,0.3506263196468353,0.2528907656669616,#
8.650053977966309,-1.5912269353866575,2.313859462738037,0.6792621612548828,0.4068242609500885,0.2370087206363678,#
7.93699312210083,-1.7371891736984253,2.3330020904541016,0.7782194018363953,0.5021164417266846,0.1343863904476165,#
7.180860996246338,-2.0554347038269043,2.2229323387146,0.8576295375823975,0.5008947253227234,0.0146603342145681,#
6.597012042999268,-2.048256158828736,1.9764715433120728,0.8796200752258301,0.4703523814678192,-0.0280989725142717,#
6.362515449523926,-1.8927226066589355,1.6797614097595217,0.8441908955574036,0.3616215586662292,-0.0488677769899368,#
6.379265785217285,-1.8999011516571045,1.6151552200317385,0.6633800864219666,0.2712161839008331,-0.0219905003905296,#
6.379265785217285,-1.8999011516571045,1.6151552200317385,0.5583143830299377,0.2235700935125351,-0.0097735561430454,#
6.424728870391846,-2.2085752487182617,1.3950155973434448,0.4129327237606048,0.0830752253532409,-0.003665083553642,#
6.903293132781982,-2.53399920463562,0.9236294627189636,0.3249707520008087,-0.0415376126766204,0.0085518611595034,#
7.3675007820129395,-2.723031997680664,0.48574298620224,0.2895416021347046,-0.0989572554826736,0.0146603342145681,#
7.831708431243896,-3.141776323318481,0.1316052377223968,0.2809897363185882,-0.2272351831197738,0.0012216945178806,#
7.831708431243896,-3.141776323318481,0.1316052377223968,0.3310791850090027,-0.2846547961235046,-0.0122169442474842,#
8.130810737609863,-3.524627923965454,0.0765703245997428,0.5204418301582336,-0.4031591713428497,-0.0207688063383102,#
8.274380683898926,-3.601198196411133,0.2009970992803573,0.8319739699363708,-0.5668662190437317,-0.0134386392310261,#
7.925028324127197,-3.462414264678955,0.3397807776927948,1.0372185707092283,-0.6536065340042114,-0.0134386392310261,#
7.527820110321045,-3.426522016525269,0.4977070987224579,1.4635900259017944,-0.84541255235672,0.0378725305199623,#
8.300702095031738,-3.464807271957397,0.1890329867601394,1.875301003456116,-1.1251806020736694,0.0464243926107883,#
8.300702095031738,-3.464807271957397,0.1890329867601394,2.068328857421875,-1.2326897382736206,0.0586413368582725,#
9.384650230407717,-3.620340585708618,-0.3469592928886413,2.5765538215637207,-1.3621894121170044,0.069636583328247,#
10.305886268615724,-3.881158351898194,-0.8303093910217285,2.8502132892608643,-1.3634110689163208,0.0745233595371246,#
10.899307250976562,-3.730410575866699,-0.8135597109794617,3.3999757766723637,-1.3438639640808103,0.0635281130671501,#
11.16012477874756,-3.218346357345581,-1.0504491329193115,3.7994697093963614,-1.2705622911453247,0.0378725305199623,#
11.16012477874756,-3.218346357345581,-1.0504491329193115,3.899648904800415,-1.2033690214157104,0.0390942245721817,#
10.722238540649414,-2.7804601192474365,-1.373480200767517,3.8752150535583496,-0.9822423458099364,0.0904053896665573,#
9.245866775512695,-2.124826431274414,-1.7635102272033691,3.5416924953460693,-0.6450546979904175,0.2638860046863556,#
8.422735214233398,-1.5337992906570437,-2.7948169708251958,3.2814714908599854,-0.52655029296875,0.3518480062484741,#
10.07139015197754,-1.5050854682922363,-3.239881753921509,2.664515733718872,-0.5033381581306458,0.4288147687911987,#
10.07139015197754,-1.5050854682922363,-3.239881753921509,2.1477389335632324,-0.2480039745569229,0.4556920528411865,#
11.454442024230955,-2.179861307144165,-2.914458036422729,1.9681499004364011,-0.0904053896665573,0.4911211729049682,#
12.141182899475098,-2.6536402702331543,-2.139183282852173,1.81177282333374,0.0012216945178806,0.4446967840194702,#
12.145968437194824,-2.9216365814208984,-1.459621787071228,1.8007776737213137,0.0048867780715227,0.3701734542846679,#
12.129218101501465,-3.414557933807373,-1.392622709274292,1.7848955392837524,-0.1087308079004287,0.175924003124237,#
12.660425186157228,-3.7710886001586914,-1.674975872039795,1.6529526710510254,-0.3139754831790924,-0.0439810007810592,#
12.660425186157228,-3.7710886001586914,-1.674975872039795,1.5466653108596802,-0.3787252902984619,-0.1343863904476165,#
12.46660614013672,-3.73758864402771,-2.093719720840454,1.280335783958435,-0.365286648273468,-0.2553341388702392,#
11.19362449645996,-3.455235719680786,-1.938186287879944,1.0958600044250488,-0.287098228931427,-0.282211422920227,#
9.76271629333496,-3.548555850982666,-1.361515998840332,1.021336555480957,-0.2663294076919555,-0.2712161839008331,#
8.731410026550293,-3.5700912475585938,-0.6652047038078308,0.9370396137237548,-0.3005368411540985,-0.1905843466520309,#
8.731410026550293,-3.5700912475585938,-0.6652047038078308,0.9602518677711488,-0.3249707520008087,-0.1356080919504165,#
8.279166221618652,-3.76151704788208,-0.5814558863639832,1.0799779891967771,-0.3958290219306946,-0.1356080919504165,#
8.449056625366211,-3.3547375202178955,-0.5718846321105957,1.2583452463150024,-0.4813476204872131,0.1319430023431778,#
8.85105037689209,-3.194417953491211,-0.2344966232776641,1.347529053688049,-0.5143333673477173,0.1685938388109207,#
9.06401252746582,-3.328416109085083,-0.1052841916680336,1.5161229372024536,-0.5277720093727112,0.2064663618803024,#
8.925228118896484,-3.2159535884857178,-0.2057827562093734,1.7348061800003052,-0.5118899941444397,0.2186833024024963,#
8.925228118896484,-3.2159535884857178,-0.2057827562093734,1.8288766145706177,-0.4911211729049682,0.2321219593286514,#
9.035298347473145,-2.825923442840576,-0.4809573292732239,1.875301003456116,-0.4569137394428253,0.2455605864524841,#
9.30329418182373,-2.4598214626312256,-0.7968099117279053,1.8484238386154173,-0.3946073353290558,0.2260134816169738,#
9.827322006225586,-2.249253273010254,-0.6843472719192505,1.7897825241088867,-0.3689517080783844,0.2223483920097351,#
10.473384857177734,-2.0027925968170166,-0.5264209508895874,1.627297043800354,-0.3432961404323578,0.21135313808918,#
10.473384857177734,-2.0027925968170166,-0.5264209508895874,1.5552170276641846,-0.2895416021347046,0.1966928243637085,#
10.37527847290039,-1.9956141710281368,-0.5216353535652161,1.4452645778656006,-0.1673721522092819,0.1856975704431533,#
9.918249130249023,-2.2133607864379883,-0.6484549045562744,1.4232741594314575,-0.0952921733260154,0.1453816443681717,#
9.812965393066406,-2.122433662414551,-0.4977070987224579,1.433047652244568,-0.0891837030649185,0.1404948681592941,#
9.628718376159668,-1.9956141710281368,-0.3541377484798431,1.4758068323135376,-0.040315918624401,0.1417165547609329,#
9.274580955505373,-1.584048628807068,-0.5024927258491516,1.4733635187149048,0.040315918624401,0.1685938388109207,#
9.274580955505373,-1.584048628807068,-0.5024927258491516,1.4269392490386963,0.0794101431965828,0.1881409436464309,#
9.083154678344728,-1.160519003868103,-0.787238597869873,1.2424633502960205,0.1673721522092819,0.2101314514875412,#
9.19561767578125,-0.9762716889381408,-0.818345308303833,1.119072198867798,0.2125748395919799,0.2101314514875412,#
9.774680137634276,-1.184447169303894,-1.1198409795761108,0.8075400590896606,0.287098228931427,0.1905843466520309,#
10.487741470336914,-0.8877372145652771,-1.588834285736084,0.4532486498355865,0.4129327237606048,0.1820324808359146,#
10.487741470336914,-0.8877372145652771,-1.588834285736084,0.256555825471878,0.5021164417266846,0.2015795856714248,#
10.619346618652344,-0.4666004180908203,-1.703689694404602,-0.1075091138482093,0.6646018028259277,0.2040229737758636,#
10.86341381072998,-0.605384111404419,-1.392622709274292,-0.3848337531089782,0.6902573704719543,0.178367406129837,#
11.1433744430542,-0.8805587291717529,-0.8925228118896484,-0.4508052766323089,0.6731536388397217,0.1698155403137207,#
10.61695384979248,-0.8709874749183655,-0.1363908797502517,-0.4043808877468109,0.6755970120429993,0.1942494213581085,#
10.61695384979248,-0.8709874749183655,-0.1363908797502517,-0.1832541674375534,0.5961868762969971,0.1954711079597473,#
9.523433685302734,-0.97148597240448,0.5431707501411438,-0.0183254163712263,0.5021164417266846,0.1771456897258758,#
9.006584167480469,-0.7393822073936462,1.1509476900100708,0.3591781854629516,0.2809897363185882,0.1478250324726104,#
8.927621841430664,-0.0813559740781784,1.8233308792114256,0.5705313086509705,0.178367406129837,0.1356080919504165,#
8.401200294494629,0.7489535212516785,1.37587308883667,0.9700254201889038,0.0842969194054603,0.129499614238739,#
8.207381248474121,0.9619146585464478,0.6747759580612183,1.1752701997756958,0.128277912735939,0.1014006435871124,#
8.207381248474121,0.9619146585464478,0.6747759580612183,1.1459494829177856,0.0989572554826736,0.0500894747674465,#
9.798608779907228,-0.0167497582733631,0.6197410225868225,0.911384105682373,-0.1038440242409706,-0.1844758540391922,#
12.490534782409668,-1.0959126949310305,0.696311354637146,0.6865922808647156,-0.1417165547609329,-0.3408527672290802,#
13.2897367477417,-0.6915256977081299,0.7968099117279053,0.5473191142082214,0.0183254163712263,-0.3567348122596741,#
11.24866008758545,0.2105683833360672,1.1006983518600464,0.3689517080783844,0.3603998720645904,-0.3213056325912475,#
11.24866008758545,0.2105683833360672,1.1006983518600464,0.2235700935125351,0.4385882914066314,-0.2919849753379822,#
9.77946662902832,0.380458801984787,1.641476273536682,-0.1600419729948043,0.4056025743484497,-0.2773246467113495,#
9.415757179260254,-0.3278167247772217,1.9860427379608157,-0.5803048610687256,0.3274141252040863,-0.2370087206363678,#
8.810372352600098,-0.8494520783424377,2.021935224533081,-0.7513421177864075,0.3213056325912475,-0.2052446752786636,#
7.901099681854248,-1.1940184831619265,1.9286150932312007,-0.9602518677711488,0.3213056325912475,-0.1490467190742492,#
7.822136878967285,-1.641476273536682,2.0721843242645264,-1.044548749923706,0.2162399291992187,-0.1356080919504165,#
7.822136878967285,-1.641476273536682,2.0721843242645264,-1.007897973060608,0.1404948681592941,-0.1637070626020431,#
8.38684368133545,-2.366501569747925,2.4287149906158447,-0.7928797006607056,0.0207688063383102,-0.2162399291992187,#
9.087940216064451,-3.050848960876465,2.5124638080596924,-0.4825693070888519,-0.0122169442474842,-0.2101314514875412,#
9.06879711151123,-2.7589242458343506,2.514856576919556,-0.3469612300395965,-0.0109952501952648,-0.1747023165225982,#
8.59501838684082,-2.280359983444214,2.3736801147460938,-0.1343863904476165,0.003665083553642,-0.100178949534893,#
8.59501838684082,-2.280359983444214,2.3736801147460938,-0.100178949534893,-0.0085518611595034,-0.0708582773804664,#
8.444271087646484,-2.1415762901306152,2.2779672145843506,-0.1123958900570869,-0.0549762547016143,-0.0708582773804664,#
8.59501838684082,-2.4957141876220703,2.416750907897949,-0.1221694499254226,-0.0586413368582725,0.0720799788832664,#
8.578269004821777,-2.711068153381348,2.589033842086792,-0.0769667476415634,-0.0574196390807628,0.0940704718232154,#
8.350951194763184,-2.612962245941162,2.909672498703003,0.0623064190149307,-0.0867403075098991,0.1123958900570869,#
8.15234661102295,-2.502892255783081,2.998206615447998,0.2455605864524841,-0.1514901220798492,0.1014006435871124,#
8.15234661102295,-2.502892255783081,2.998206615447998,0.3176405727863312,-0.2125748395919799,0.0855186134576797,#
8.616554260253906,-2.3090739250183105,3.160918712615967,0.471574068069458,-0.3738385140895843,0.0122169442474842,#
8.973085403442383,-2.3258235454559326,3.0484561920166016,0.5522059202194214,-0.4141544103622436,-0.0378725305199623,#
9.04726219177246,-2.3545374870300293,2.7948169708251958,0.7171346545219421,-0.4532486498355865,-0.0537545569241046,#
9.28175926208496,-2.155933380126953,2.5842485427856445,0.8234220743179321,-0.4825693070888519,-0.0684148892760276,#
9.28175926208496,-2.155933380126953,2.5842485427856445,0.8429691791534424,-0.4776825606822967,-0.0671931952238082,#
9.702895164489746,-1.8999011516571045,2.3306093215942383,0.8246437907218933,-0.4141544103622436,-0.0171037223190069,#
9.53779125213623,-1.6295121908187866,2.069791555404663,0.7721109390258789,-0.2626643180847168,0.0842969194054603,#
9.025726318359377,-1.356730580329895,2.0673987865448,0.7220214009284973,-0.2064663618803024,0.1392731666564941,#
8.827122688293457,-1.1102697849273682,2.1822540760040283,0.5839699506759644,-0.1441599577665329,0.2431172132492065,#
8.827122688293457,-1.1102697849273682,2.1822540760040283,0.4337015450000763,-0.1514901220798492,0.310310423374176,#
9.243474006652832,-1.2825528383255005,2.069791555404663,0.3616215586662292,-0.1710372269153595,0.3310791850090027,#
9.834501266479492,-1.2562319040298462,1.7706886529922483,0.2663294076919555,-0.1392731666564941,0.3946073353290558,#
10.217352867126465,-1.3160523176193235,0.9667003750801086,0.2211267054080963,-0.123391143977642,0.4214845895767212,#
10.384849548339844,-1.5122638940811155,1.3160523176193235,0.1661504507064819,-0.1014006435871124,0.4593571126461029,#
10.368099212646484,-1.8592231273651123,1.6127625703811646,0.2028012871742248,-0.1441599577665329,0.5118899941444397,#
10.368099212646484,-1.8592231273651123,1.6127625703811646,0.258999228477478,-0.2125748395919799,0.5412106513977051,#
11.203195571899414,-2.282752752304077,1.6223337650299072,0.4544703662395477,-0.393385648727417,0.5766398310661316,#
12.220145225524902,-2.2612173557281494,1.2538390159606934,0.7000309228897095,-0.517998456954956,0.7281299233436584,#
12.775279998779297,-2.263610363006592,1.2705888748168943,0.8429691791534424,-0.6230642199516296,0.818535327911377,#
13.225130081176758,-2.524427890777588,1.031306505203247,1.155722975730896,-0.8637380003929138,1.0335536003112793,#
13.225130081176758,-2.524427890777588,1.031306505203247,1.2852225303649902,-1.012784719467163,1.1251806020736694,#
14.065011024475098,-2.785245418548584,0.4618147313594818,1.4672551155090332,-1.3096565008163452,1.3463072776794434,#
13.84247875213623,-2.6943180561065674,-1.2586246728897097,1.534448266029358,-1.320651650428772,1.5906461477279663,#
12.44507122039795,-1.832902193069458,-1.2681961059570312,1.51734459400177,-1.2840008735656738,1.716480731964111,#
11.49512004852295,-1.8257235288619995,-0.6532405614852905,1.8264333009719849,-1.1300673484802246,1.7005987167358398,#
10.365707397460938,0.2799602448940277,-0.2344966232776641,1.4342693090438845,-0.393385648727417,1.8239898681640625,#
10.365707397460938,0.2799602448940277,-0.2344966232776641,1.4391560554504397,-0.3909422159194946,1.7433580160140991,#
9.28175926208496,-0.4235295951366424,-1.131805181503296,1.1997039318084717,-0.3139754831790924,1.4025052785873413,#
9.087940216064451,-2.809173583984375,-0.7513462901115417,0.9846857786178588,-0.0708582773804664,1.1264023780822754,#
8.803194999694824,-1.7539390325546265,-0.0765703245997428,0.53143709897995,-0.0048867780715227,1.1019684076309204,#
8.264809608459473,-3.3092737197875977,0.662811815738678,-0.6401678919792175,-0.0647498071193695,1.0323318243026731,#
8.264809608459473,-3.3092737197875977,0.662811815738678,-1.27544903755188,-0.0684148892760276,0.8893935680389404,#
6.714260101318359,-6.532405853271484,1.5720844268798828,-1.8362067937850952,-0.3005368411540985,0.6047387719154358,#
5.525027275085449,-6.668797016143799,0.2871387302875519,-2.0695505142211914,-0.0195471122860908,0.3481829464435577,#
5.974878311157227,-7.838886737823486,-0.6771688461303711,-1.9754799604415891,0.0659715011715889,0.2211267054080963,#
6.735795497894287,-8.609375953674316,-1.1700903177261353,-2.0438947677612305,-0.2980934381484985,0.0855186134576797,#
6.735795497894287,-8.609375953674316,-1.1700903177261353,-1.8423151969909668,-0.3481829464435577,0.4361449182033539,#
5.072784423828125,-5.5274200439453125,-1.672582983970642,-1.6969337463378906,0.0219905003905296,0.4178195297718048,#
4.677968502044678,-6.766902446746826,-1.852044701576233,-1.7421363592147827,-0.155155211687088,0.63283771276474,#
4.086941242218018,-7.465606689453125,-0.1674975752830505,-1.6089717149734497,-0.4727957546710968,0.8099834322929382,#
5.206782341003418,-8.212166786193848,0.8470591902732849,-1.290109395980835,-0.2174616158008575,0.5583143830299377,#
5.206782341003418,-8.212166786193848,0.8470591902732849,-0.2211267054080963,-0.6951441764831543,0.4801259338855743,#
6.31944465637207,-5.984449863433838,0.3517449200153351,0.1331647038459777,-0.6597149968147278,0.4825693070888519,#
7.094719409942627,-4.180261135101318,0.114855483174324,0.3823903799057007,-0.5412106513977051,0.5632011890411377,#
7.278966426849365,-3.833301782608032,0.1770688742399215,-0.0745233595371246,-0.0598630309104919,0.7317950129508972,#
6.910471439361572,-5.118247985839844,-0.1603191047906875,-0.2895416021347046,0.1429382413625717,0.7036960124969482,#
6.910471439361572,-5.118247985839844,-0.1603191047906875,-0.7660024166107178,0.4654656052589416,0.6022953391075134,#
6.364907741546631,-4.371686935424805,-0.1794617027044296,-0.785549521446228,0.4385882914066314,0.4837909936904907,#
6.766902446746826,-3.69930362701416,0.6532405614852905,-0.943148136138916,0.4337015450000763,0.4605787992477417,#
6.807580471038818,-1.239482045173645,-2.648854732513428,-1.7238109111785889,0.4911211729049682,0.3017585575580597,#
5.61834716796875,-6.417550563812256,-5.996413230895996,-2.5264639854431152,0.8124268054962158,0.3286358118057251,#
6.240481376647949,-3.950549840927124,-2.5196423530578613,-3.0273590087890625,0.3811686933040619,0.4337015450000763,#
6.240481376647949,-3.950549840927124,-2.5196423530578613,-2.828222751617432,0.8710681796073914,-0.2602209150791168,#
7.57806921005249,-1.6271194219589231,-1.832902193069458,-2.8428831100463867,1.0494356155395508,-0.6377245187759399,#
8.800802230834961,-3.5748770236968994,-4.347758769989014,-3.246042251586914,0.818535327911377,-0.860072910785675,#
9.511469841003418,-4.651647090911865,-3.488735675811768,-3.1336464881896973,0.8014315962791443,-0.9626952409744264,#
8.901299476623535,-3.675375461578369,-3.292524099349976,-2.9198498725891118,0.929709494113922,-0.8246437907218933,#
8.901299476623535,-3.675375461578369,-3.292524099349976,-2.58021879196167,0.8979454636573792,-0.6511631608009338,#
8.980262756347656,-4.07258415222168,-5.417350769042969,-2.4568276405334477,0.7110261917114258,-0.5155550837516785,#
10.619346618652344,-5.034498691558838,-6.503692150115967,-2.0817673206329346,0.2382304221391677,-0.4324798583984375,#
9.906286239624023,-4.960320949554443,-5.556134223937988,-1.0885297060012815,-0.2247917801141739,-0.0720799788832664,#
8.176274299621582,-5.326423168182373,-5.350350856781006,-0.5534276366233826,-0.3665083348751068,0.1123958900570869,#
8.48734188079834,-4.019941806793213,-4.816751956939697,0.522885262966156,-0.6914790868759155,0.0427593067288398,#
8.48734188079834,-4.019941806793213,-4.816751956939697,1.8337633609771729,-1.012784719467163,-0.4324798583984375,#
8.551947593688965,-3.6921253204345694,-3.359522819519043,2.568001747131348,-1.172826647758484,-0.7769976854324341,#
8.14516830444336,-2.093719720840454,-3.94097900390625,3.8874318599700928,-1.3353121280670166,-1.187487006187439,#
7.329216003417969,-0.4785645008087158,-2.4335007667541504,4.515382766723633,-1.3377554416656494,-1.4428211450576782,#
6.903293132781982,-0.4713860750198364,-1.5433706045150757,4.389548301696777,-1.220472812652588,-1.5161229372024536,#
6.903293132781982,-0.4713860750198364,-1.5433706045150757,3.948516607284546,-0.7574505805969238,-1.705485463142395,#
5.989234924316406,-2.675175428390503,0.1124626696109771,3.474499225616455,-0.4740174412727356,-1.8325417041778564,#
3.9553356170654297,-6.029913425445557,2.2995026111602783,2.4543843269348145,0.1368297785520553,-1.8496454954147337,#
6.829115867614746,-9.073582649230955,5.601597785949707,1.5979763269424438,0.5803048610687256,-1.931498885154724,#
7.027719974517822,-11.2366943359375,8.654839515686035,1.2913310527801514,0.5876350998878479,-1.9950270652771,#
7.247859954833984,-8.271987915039062,6.843472957611084,1.6468441486358645,0.9236010909080504,-1.4733635187149048,#
7.247859954833984,-8.271987915039062,6.843472957611084,1.4965757131576538,1.6431790590286257,-0.7159129977226257,#
7.987241268157959,-7.334001541137695,3.814159393310547,0.767224133014679,1.919282078742981,-0.6291726231575012,#
9.877571105957031,-9.757929801940918,2.651247262954712,-1.3573025465011597,2.643746852874756,-0.5729747414588928,#
10.923234939575195,-11.873186111450195,0.4402793645858764,-2.5875487327575684,2.8221142292022705,-0.2663294076919555,#
12.131609916687012,-10.097711563110352,-0.7896314859390259,-2.53135085105896,2.655963897705078,0.1038440242409706,#
12.131609916687012,-10.097711563110352,-0.7896314859390259,-1.8093295097351076,1.886296272277832,0.7843278050422668,#
12.239288330078123,-7.338787078857422,-1.8185452222824097,-1.4513731002807615,1.381736397743225,1.086086392402649,#
12.827921867370604,-6.0610198974609375,-3.421736478805542,-0.9419264793395996,0.2040229737758636,1.50757098197937,#
13.24666690826416,-3.9792640209198,-4.814359188079834,-1.031110167503357,-0.9773555994033812,1.6676130294799805,#
14.036296844482422,-4.177868366241455,-6.604190349578857,-1.385401487350464,-1.502684235572815,1.7531315088272097,#
13.03131103515625,-4.582255363464356,-5.967699527740479,-1.847202181816101,-2.332214832305908,1.982810139656067,#
13.03131103515625,-4.582255363464356,-5.967699527740479,-0.9321528673171996,-2.425063371658325,2.115974903106689,#
12.859027862548828,-2.68953275680542,-2.6249265670776367,-0.3848337531089782,-2.260134696960449,2.1098663806915283,#
11.53579807281494,-3.5198421478271484,-0.2081755697727203,0.1747023165225982,-1.4269392490386963,2.1184182167053223,#
10.231709480285645,-3.7232320308685294,-0.4259224236011505,0.6621583700180054,-0.5888567566871643,1.9143953323364256,#
9.03290557861328,-1.8113667964935305,0.4283152520656585,2.095206022262573,-0.3775035738945007,1.610193371772766,#
9.03290557861328,-1.8113667964935305,0.4283152520656585,2.808675765991211,0.1649287492036819,1.2168077230453491,#
7.700103282928467,-1.7443678379058838,-2.148754596710205,3.484272718429565,0.4898994863033294,0.7696675062179565,#
7.814958095550537,-2.407179594039917,-2.7182462215423584,4.092676639556885,0.4776825606822967,0.2907632887363434,#
7.776673316955566,2.825923442840576,-0.0263210479170084,3.6443145275115967,0.707361102104187,-0.0671931952238082,#
7.487142086029053,3.658626079559326,-0.3948157429695129,3.301018476486206,0.9541434049606324,-0.0476460866630077,#
7.487142086029053,3.658626079559326,-0.3948157429695129,1.8533105850219729,0.818535327911377,-0.1392731666564941,#
8.334200859069824,0.662811815738678,-1.6893328428268433,-1.637070655822754,0.95658677816391,-0.2748812437057495,#
8.511269569396973,-3.7639100551605225,-0.7106683850288391,-1.6773865222930908,1.7262543439865112,-0.287098228931427,#
10.411171913146973,-7.243074417114258,0.7202396392822266,-1.461146593093872,1.9852535724639893,-0.5412106513977051,#
9.994820594787598,-5.266602516174316,1.7324036359786987,-1.3084348440170288,2.2234840393066406,-0.8820634484291077,#
7.649853706359863,-5.079962730407715,0.9667003750801086,-0.891836941242218,2.282125234603882,-1.0983033180236816,#
7.649853706359863,-5.079962730407715,0.9667003750801086,-0.6963658928871155,2.019460916519165,-1.2058125734329224,#
6.26440954208374,-5.912664413452148,-0.0789631456136703,-0.5815265774726868,1.4660333395004272,-1.1459494829177856,#
6.226124286651611,-5.051248073577881,0.1316052377223968,-1.0885297060012815,1.0384403467178345,-1.1019684076309204,#
6.613761901855469,-7.15932559967041,-0.7776673436164856,-0.864959716796875,0.8148701786994934,-0.8820634484291077,#
6.532405853271484,-8.398807525634766,0.3876372575759887,-0.4190412163734436,0.7562289237976074,-0.3982723951339721,#
6.532405853271484,-8.398807525634766,0.3876372575759887,-0.1685938388109207,0.5913001298904419,-0.1600419729948043,#
6.281159400939941,-7.735995292663574,2.1367905139923096,-0.0610847249627113,0.4337015450000763,-0.123391143977642,#
7.176074504852295,-7.75753116607666,3.531806230545044,-0.0989572554826736,-0.0842969194054603,0.0024433890357613,#
8.592625617980957,-7.534998416900635,3.828516006469727,-0.069636583328247,-0.393385648727417,0.1123958900570869,#
9.090332984924316,-7.561319828033447,3.141776323318481,-0.0415376126766204,-0.9455915093421936,0.2846547961235046,#
9.396614074707031,-8.506484031677246,2.3880369663238525,0.0525328628718853,-1.248571753501892,0.1942494213581085,#
9.396614074707031,-8.506484031677246,2.3880369663238525,0.2223483920097351,-1.3573025465011597,0.1404948681592941,#
9.722038269042969,-8.47059154510498,2.0865414142608643,1.0567656755447388,-1.3316470384597778,0.1221694499254226,#
10.600205421447754,-7.341179370880127,3.1824538707733154,2.565558433532715,-0.9248227477073668,-0.0623064190149307,#
8.999405860900879,-4.505684852600098,1.9525433778762815,3.127537727355957,-0.6951441764831543,0.0342074446380138,#
8.209774017333984,-2.919243574142456,0.7561319470405579,2.6742892265319824,-0.5057815313339233,0.2699944972991943,#
8.209774017333984,-2.919243574142456,0.7561319470405579,2.284568548202514,-0.4434750974178314,0.2724378705024719,#
8.204988479614258,-5.623133182525635,1.6342979669570925,2.2723517417907715,-0.3090887069702148,0.2431172132492065,#
7.93699312210083,-3.2757742404937744,2.7828526496887207,1.8655275106430051,-0.3823903799057007,0.1343863904476165,#
7.262216091156006,-2.148754596710205,1.3998013734817505,1.392731785774231,-0.4898994863033294,0.1136175915598869,#
7.692924976348877,-3.3714869022369385,2.282752752304077,0.5131116509437561,-0.4532486498355865,0.1844758540391922,#
7.728816509246826,-3.613162040710449,2.522034883499145,-0.128277912735939,-0.2186833024024963,0.287098228931427,#
7.728816509246826,-3.613162040710449,2.522034883499145,-0.3127537965774536,-0.0720799788832664,0.3066453039646148,#
6.726224899291992,-3.672982692718506,2.2396819591522217,-0.3603998720645904,0.1466033309698104,0.2321219593286514,#
6.254837989807129,-4.149154186248779,1.6534404754638672,-0.0733016654849052,0.1624853760004043,0.0708582773804664,#
6.360122680664063,-4.740181922912598,1.3040882349014282,0.1368297785520553,0.1258345395326614,-0.0183254163712263,#
6.183053970336914,-4.661218643188477,0.9858429431915284,0.5790832042694092,0.0781884491443634,-0.3213056325912475,#
6.183053970336914,-4.661218643188477,0.9858429431915284,0.652384877204895,0.0623064190149307,-0.4960079491138458,#
6.766902446746826,-3.3092737197875977,0.6987042427062988,0.6047387719154358,0.0256555844098329,-0.8344173431396484,#
8.525627136230469,-2.469392776489258,2.203789472579956,0.2626643180847168,0.282211422920227,-0.9407047629356384,#
9.626325607299805,-2.431107759475708,2.68953275680542,-0.0623064190149307,0.411711037158966,-0.9040539264678956,#
9.083154678344728,-3.395415067672729,2.531606435775757,-1.0140063762664795,0.6365028619766235,-0.6389462351799011,#
8.389235496520996,-4.831109046936035,2.0673987865448,-1.4977973699569702,0.6120689511299133,-0.4984513521194458,#
8.389235496520996,-4.831109046936035,2.0673987865448,-1.3902883529663086,0.554649293422699,-0.5131116509437561,#
7.94177770614624,-6.1256256103515625,2.524427890777588,-0.6731536388397217,0.6352811455726624,-0.7440119385719299,#
8.434700012207031,-3.431307554244995,3.3068809509277344,-0.2895416021347046,0.5485408306121826,-0.8014315962791443,#
8.949156761169434,-2.792424201965332,3.479164123535156,-0.1661504507064819,0.4776825606822967,-0.8356390595436096,#
8.50887680053711,-2.868994235992432,3.608376264572144,-0.1136175915598869,0.3371876776218414,-0.8759549260139465,#
8.50887680053711,-2.868994235992432,3.608376264572144,-0.2089097648859024,0.2052446752786636,-0.860072910785675,#
9.272188186645508,-2.524427890777588,3.5509488582611084,-0.4190412163734436,-0.1123958900570869,-0.9956809878349304,#
10.001997947692873,-2.328216552734375,3.390629768371582,-0.8869501948356628,-0.31641885638237,-0.9956809878349304,#
10.114461898803713,-1.9070796966552732,2.282752752304077,-1.1349540948867798,-0.3115321099758148,-0.9785772562026978,#
10.188638687133787,-2.2372891902923584,3.4025940895080566,-1.562547206878662,-0.2394521236419677,-0.893058717250824,#
10.870593070983888,-3.5030922889709477,3.751945972442627,-1.5295615196228027,-0.0354291386902332,-0.9321528673171996,#
10.870593070983888,-3.5030922889709477,3.751945972442627,-1.5747642517089844,0.1441599577665329,-0.9236010909080504,#
11.502297401428224,-2.629711866378784,4.19701099395752,-2.104979515075684,0.5961868762969971,-0.7831061482429504,#
10.8969144821167,-1.856830358505249,5.151747226715088,-2.530129194259644,0.7660024166107178,-0.7293516397476196,#
10.839487075805664,-2.5866410732269287,5.034498691558838,-3.261924266815185,1.0494356155395508,-0.6413896083831787,#
10.77488136291504,-3.675375461578369,5.501099109649658,-3.6052205562591553,1.414722204208374,-0.4837909936904907,#
10.77488136291504,-3.675375461578369,5.501099109649658,-3.777479410171509,1.6712781190872192,-0.333522617816925,#
9.712467193603516,-4.232903003692627,5.474778175354004,-4.0719075202941895,2.007244110107422,-0.0439810007810592,#
9.53779125213623,-5.55852746963501,6.020341873168945,-4.076794624328613,2.0243477821350098,0.1075091138482093,#
10.552348136901855,-6.27158784866333,6.570690631866455,-4.069464206695557,2.048781633377075,0.2101314514875412,#
11.389835357666016,-5.644669055938721,5.206782341003418,-4.47750997543335,2.190498352050781,0.5570926666259766,#
11.389835357666016,-5.644669055938721,5.206782341003418,-4.648547649383545,2.728043794631958,0.8796200752258301,#
10.961520195007324,-6.860222339630127,3.744767427444458,-4.5227131843566895,3.023693799972534,1.0372185707092283,#
10.363314628601074,-9.274580955505373,3.5605196952819824,-4.253940105438232,3.4598388671875,1.4073920249938965,#
10.155139923095703,-9.791430473327637,3.964907169342041,-4.21240234375,3.630875825881958,1.6700563430786133,#
10.602598190307615,-10.360921859741213,3.4408791065216064,-4.167200088500977,3.974172353744507,2.0377864837646484,#
10.387242317199709,-10.581062316894531,1.3112668991088867,-4.349232196807861,4.03892183303833,2.484926700592041,#
10.387242317199709,-10.581062316894531,1.3112668991088867,-4.371222972869873,3.938743114471436,2.695058107376098,#
9.87278652191162,-11.595619201660156,1.641476273536682,-3.965620279312134,3.573456287384033,2.979712724685669,#
9.678967475891112,-11.578868865966797,1.9812570810317995,-3.2497072219848637,2.878312110900879,3.138533115386963,#
8.568697929382324,-9.774680137634276,0.916451096534729,-2.7695813179016118,2.5386812686920166,3.231381893157959,#
7.434500217437744,-9.250652313232422,-0.3661018908023834,-1.930277228355408,1.996248722076416,3.335226058959961,#
7.434500217437744,-9.250652313232422,-0.3661018908023834,-1.5991979837417605,1.837428450584412,3.3376693725585938,#
6.659225463867188,-9.083154678344728,-0.5407779216766357,-1.1044118404388428,1.5882028341293335,3.352329730987549,#
6.02512788772583,-8.71944522857666,0.7226324081420898,-0.6401678919792175,1.327981948852539,3.2936882972717285,#
5.800201892852783,-8.410772323608398,1.6127625703811646,-0.3775035738945007,1.196038842201233,3.246042251586914,#
5.139782905578613,-7.168896198272705,0.5838487148284912,0.0183254163712263,1.1056334972381592,3.112877607345581,#
4.673182487487793,-6.173482418060303,0.3493521213531494,-0.069636583328247,1.099524974822998,2.9589438438415527,#
4.673182487487793,-6.173482418060303,0.3493521213531494,-0.3029802441596985,1.1251806020736694,2.8343310356140137,#
4.053441524505615,-6.573083877563477,1.1222338676452637,-0.63283771276474,1.0421053171157837,2.5765538215637207,#
3.687339782714844,-7.17368221282959,1.2705888748168943,-0.6377245187759399,0.8099834322929382,2.3273282051086426,#
3.421736478805542,-7.439285278320312,1.2131611108779907,-0.5216635465621948,0.6829272508621216,2.2173755168914795,#
3.1896328926086426,-6.9583282470703125,0.3302095234394073,-0.2797680497169494,0.6255075931549072,1.9657063484191892,#
3.1896328926086426,-6.9583282470703125,0.3302095234394073,-0.2040229737758636,0.6560499668121338,1.8410935401916504,#
2.596212387084961,-6.360122680664063,-0.3326023519039154,-0.2101314514875412,0.8124268054962158,1.6346272230148315,#
2.031506299972534,-6.891329765319824,-0.4881358444690704,-0.310310423374176,1.0066763162612915,1.3621894121170044,#
1.5026925802230835,-7.980063438415527,-0.5312066078186035,-0.3151971697807312,1.0469921827316284,1.241241693496704,#
0.8398807048797607,-8.906085968017578,-1.1365907192230225,-0.0916270837187767,0.9358179569244384,1.0482138395309448,#
0.5886343717575073,-8.437092781066895,-2.931207656860352,-0.0464243926107883,0.786771297454834,0.9150491952896118,#
0.5886343717575073,-8.437092781066895,-2.931207656860352,-0.1209477484226226,0.7293516397476196,0.860072910785675,#
0.1698903888463974,-8.520841598510742,-4.388436794281006,-0.4801259338855743,0.6193991303443909,0.7525637745857239,#
0.3756731450557709,-8.71466064453125,-5.745166778564453,-1.1508362293243408,0.4520269632339477,0.7049177289009094,#
0.763310432434082,-8.640481948852539,-6.996613025665283,-1.5405566692352295,0.3200839459896087,0.6975875496864319,#
1.6917256116867063,-7.621140003204346,-8.181060791015625,-2.277238368988037,-0.1258345395326614,0.7660024166107178,#
1.6917256116867063,-7.621140003204346,-8.181060791015625,-2.515469074249268,-0.3640649616718292,0.7635590434074402,#
1.864008903503418,-7.647461414337158,-10.322636604309082,-2.846548318862915,-0.8893935680389404,0.7146912813186646,#
2.567498683929444,-9.327221870422363,-11.949756622314451,-2.403073072433472,-1.5637688636779783,0.6047387719154358,#
3.960121393203736,-10.738987922668455,-12.885350227355955,-2.020682573318481,-1.8410935401916504,0.5412106513977051,#
4.654040336608887,-10.047462463378906,-12.775279998779297,-1.381736397743225,-2.55089807510376,0.4972296357154846,left
4.654040336608887,-10.047462463378906,-12.775279998779297,-1.2742273807525637,-2.927180051803589,0.4752391576766968,left
5.565705299377441,-9.375079154968262,-14.256437301635742,-1.4318259954452517,-3.721281528472901,0.3432961404323578,left
5.838487148284912,-10.368099212646484,-14.158330917358398,-1.4599249362945557,-4.933202266693115,0.0720799788832664,left
8.571090698242188,-11.002198219299316,-16.460227966308594,-1.6358489990234375,-5.630789756774902,-0.0427593067288398,left
14.356935501098633,-12.595817565917969,-14.213366508483888,-2.368865489959717,-7.550072193145752,-0.4776825606822967,left
16.878971099853516,-14.390435218811035,-7.183253765106201,-2.70116662979126,-10.010564804077148,-1.0567656755447388,left
16.878971099853516,-14.390435218811035,-7.183253765106201,-2.9723825454711914,-11.277461051940918,-1.248571753501892,left
17.974882125854492,-12.67956829071045,-2.007578134536743,-3.6553099155426025,-13.29692268371582,-1.767791986465454,left
17.481962203979492,-14.517254829406738,0.7010970115661621,-3.771370887756348,-14.789833068847656,-2.326106309890747,left
15.665809631347656,-16.936397552490234,-2.761317014694214,-3.773814201354981,-15.207653045654297,-2.317554235458374,left
13.584053993225098,-17.78824234008789,-11.648260116577148,-2.8416614532470703,-14.505178451538086,-2.114753007888794,left
13.584053993225098,-17.78824234008789,-11.648260116577148,-2.499586820602417,-13.70863437652588,-1.8288766145706177,left
14.969497680664062,-15.833307266235352,-14.9671049118042,-1.7971125841140747,-13.156428337097168,-1.0518789291381836,left
19.86999893188477,-18.848262786865234,-9.686145782470703,-0.8307521939277649,-11.821115493774414,-0.4984513521194458,left
22.41835594177246,-18.891334533691406,-1.864008903503418,-0.4495835602283478,-10.783897399902344,-0.3481829464435577,left
21.15494537353516,-16.1850528717041,3.103491306304932,-0.2015795856714248,-8.474894523620605,0.2321219593286514,left
17.766708374023438,-13.907085418701172,4.654040336608887,-0.4337015450000763,-6.515296459197998,0.730573296546936,left
17.766708374023438,-13.907085418701172,4.654040336608887,-0.5558710098266602,-5.688209533691406,0.8674030900001526,left
15.084354400634766,-12.20339584350586,4.945964336395264,-0.5900784730911255,-4.168421268463135,1.0066763162612915,left
12.964313507080078,-12.253644943237305,4.843072891235352,-0.4324798583984375,-2.758586168289185,1.0714260339736938,left
10.40638542175293,-11.815757751464844,4.335794448852539,-0.3090887069702148,-2.1452953815460205,1.0787562131881714,left
8.056633949279785,-11.028520584106444,3.168097257614136,-0.2382304221391677,-1.1056334972381592,1.1288456916809082,left
8.056633949279785,-11.028520584106444,3.168097257614136,-0.3823903799057007,-0.6584933400154114,1.1984822750091553,left
5.544170379638672,-9.410971641540527,2.3090739250183105,-0.5644228458404541,-0.069636583328247,1.1948171854019165,left
3.160918712615967,-8.874979019165039,2.062613010406494,-0.660936713218689,0.1172826737165451,1.1435059309005735,left
1.1653046607971191,-9.19561767578125,1.864008903503418,-0.6780403852462769,0.1014006435871124,1.1068552732467651,left
0.3900300860404968,-9.717252731323242,1.6199408769607544,-0.6279509663581848,-0.0733016654849052,0.95658677816391,left
0.5934200286865234,-9.370293617248535,1.0791629552841189,-0.5094466209411621,-0.2162399291992187,0.785549521446228,left
0.5934200286865234,-9.370293617248535,1.0791629552841189,-0.4422534108161926,-0.199136197566986,0.7036960124969482,left
0.0741775035858154,-8.236095428466797,1.4715858697891235,-0.3958290219306946,-0.0012216945178806,0.5570926666259766,left
-0.8805587291717529,-8.382057189941406,1.4715858697891235,-0.3591781854629516,0.1197260618209838,0.4850127100944519,left
-1.497907042503357,-8.841480255126953,1.3136597871780396,-0.2247917801141739,0.3005368411540985,0.333522617816925,left
-1.0552347898483276,-8.939584732055664,0.7561319470405579,0.0109952501952648,0.3823903799057007,0.178367406129837,#
-1.0552347898483276,-8.939584732055664,0.7561319470405579,0.1575985848903656,0.4337015450000763,0.1038440242409706,#
-0.1052841916680336,-8.721837997436523,0.1722832471132278,0.4972296357154846,0.5815265774726868,-0.069636583328247,#
0.8685945868492126,-7.860422611236572,0.0813559740781784,0.790436327457428,0.7843278050422668,-0.2223483920097351,#
1.56969153881073,-7.015756130218506,-0.0382851622998714,0.999346137046814,0.8942803740501404,-0.3359659910202026,#
2.108076810836792,-6.410372257232666,-0.1244267746806144,1.6810516119003296,1.086086392402649,-0.6511631608009338,#
2.108076810836792,-6.410372257232666,-0.1244267746806144,2.050003290176392,1.196038842201233,-0.8588511943817139,#
2.148754596710205,-4.898108005523682,-0.607776939868927,2.597322702407837,1.4733635187149048,-1.3145432472229004,#
2.196611166000366,-3.136990547180176,-1.038485050201416,2.8050105571746826,1.722589135169983,-1.8276549577713013,#
2.1750757694244385,-1.8951154947280884,-0.8350951075553894,2.8013453483581543,1.8288766145706177,-2.1110880374908447,#
2.2468602657318115,-1.6582260131835938,-0.605384111404419,2.789128541946411,2.030456304550171,-2.742703914642334,#
2.3976082801818848,-1.5912269353866575,-0.818345308303833,2.757364511489868,2.170951128005981,-3.4696123600006104,#
2.3976082801818848,-1.5912269353866575,-0.818345308303833,2.7317090034484863,2.18438982963562,-3.833677291870117,#
3.081955671310425,-2.581855773925781,-1.6271194219589231,2.5912139415740967,2.114753007888794,-4.619226932525635,#
4.031906127929688,-3.34995174407959,-1.1700903177261353,1.61874520778656,1.9290555715560915,-5.309484004974365,#
5.247459888458252,-3.818945169448853,-0.6460621356964111,1.0799779891967771,1.8288766145706177,-5.531832695007324,#
6.443871021270752,-4.441079139709473,-0.5599204897880554,-0.2602209150791168,1.6834949254989624,-5.926440238952637,#
6.443871021270752,-4.441079139709473,-0.5599204897880554,-0.7244647741317749,1.7005987167358398,-6.095034122467041,#
7.934599876403809,-8.350951194763184,-1.5457634925842283,-0.3872771561145782,1.6138584613800049,-6.581268310546875,#
10.061819076538086,-15.82134246826172,-0.4977070987224579,0.3628432750701904,1.257123589515686,-6.911125659942627,#
10.978270530700684,-15.381063461303713,0.705882728099823,0.3469612300395965,0.998124361038208,-6.793842792510986,#
10.729416847229004,-9.35832977294922,0.4426721632480621,0.2064663618803024,0.63283771276474,-6.289283275604248,#
13.000205039978027,-9.12383270263672,0.1818545311689376,-0.7843278050422668,0.1795890927314758,-5.923996448516846,#
13.000205039978027,-9.12383270263672,0.1818545311689376,-1.413500428199768,0.0378725305199623,-5.562374591827393,#
16.761722564697266,-14.325828552246094,1.00259268283844,-2.2576913833618164,0.2162399291992187,-4.958858013153076,#
15.699310302734377,-15.699310302734377,2.0889341831207275,-3.158080101013184,0.5021164417266846,-4.279595851898193,#
13.811371803283691,-13.495519638061523,2.6464619636535645,-3.462282180786133,0.517998456954956,-4.141544342041016,#
14.069796562194824,-12.42832088470459,2.6775684356689453,-3.881323337554932,0.3506263196468353,-3.82634711265564,#
14.069796562194824,-12.42832088470459,2.6775684356689453,-3.9350779056549072,0.3090887069702148,-3.658974885940552,#
13.296914100646973,-11.105090141296388,3.058027505874634,-3.922861099243164,0.3530696928501129,-3.349886417388916,#
12.35414218902588,-9.391828536987305,1.9860427379608157,-4.01570987701416,0.4972296357154846,-3.0652315616607666,#
11.44965648651123,-8.202595710754395,0.8327022790908813,-4.213624477386475,0.6426112651824951,-2.921071529388428,#
11.174481391906738,-7.118647575378418,1.5242280960083008,-4.802481174468994,0.8527427315711975,-2.597322702407837,#
11.45205020904541,-7.192824840545654,2.00518536567688,-5.023607730865479,0.998124361038208,-2.3273282051086426,#
11.45205020904541,-7.192824840545654,2.00518536567688,-5.005282402038574,1.0958600044250488,-2.161177635192871,#
11.351551055908203,-7.369894027709961,2.091326951980591,-4.872117519378662,1.3182083368301392,-1.7433580160140991,#
11.090733528137209,-6.510870456695557,2.3473589420318604,-4.851348876953125,1.446486234664917,-1.4977973699569702,#
11.107483863830566,-6.312265872955322,3.1824538707733154,-4.7633867263793945,1.6468441486358645,-1.0176715850830078,#
11.540583610534668,-7.465606689453125,4.00319242477417,-4.558142185211182,1.698155403137207,-0.4911211729049682,#
11.540583610534668,-7.465606689453125,4.00319242477417,-4.618005275726318,1.7690136432647705,-0.1160609796643257,#
12.361321449279783,-7.695317268371582,3.838087558746338,-4.804924488067627,2.144073724746704,0.6426112651824951,#
11.885149955749512,-8.216952323913574,3.728017807006836,-5.177541255950928,2.774468183517456,1.3707412481307983,#
11.365907669067385,-9.588040351867676,4.261617183685303,-5.311927795410156,2.977269411087036,1.7335845232009888,#
11.78465175628662,-10.755738258361816,3.098705530166626,-5.203197002410889,3.197174549102783,2.4666011333465576,#
11.78465175628662,-10.755738258361816,3.098705530166626,-4.8232502937316895,3.483051061630249,3.158080101013184,#
11.901899337768556,-12.335000991821287,3.8356947898864746,-4.599679470062256,3.611328840255737,3.467169046401977,#
11.779866218566896,-12.866207122802734,3.464807271957397,-4.206294059753418,3.899648904800415,4.076794624328613,#
10.69113063812256,-12.576675415039062,2.3569302558898926,-3.9301912784576416,4.037700176239014,4.282039165496826,#
9.492327690124512,-12.378071784973145,2.6799612045288086,-3.4439568519592285,4.181860446929932,4.586241245269775,#
8.628519058227539,-12.303894996643066,3.400200843811035,-2.7671380043029785,4.091454982757568,4.723070621490479,#
8.628519058227539,-12.303894996643066,3.400200843811035,-2.302894115447998,4.003492832183838,4.762165546417236,#
7.551748275756836,-11.679367065429688,4.429114818572998,-1.141062617301941,3.773814201354981,4.756056785583496,#
7.128218650817871,-9.745966911315918,3.8500516414642334,-0.4813476204872131,3.9179742336273193,4.65709924697876,#
5.544170379638672,-7.479963302612305,1.8759729862213133,-0.3860554695129394,3.88498854637146,4.544703483581543,#
3.957728624343872,-6.666403770446777,1.430907964706421,-0.4837909936904907,3.737163543701172,4.3467888832092285,#
3.957728624343872,-6.666403770446777,1.430907964706421,-0.5509842038154602,3.69562578201294,4.173308372497559,#
2.84506630897522,-6.52044153213501,1.5026925802230835,-0.3396310806274414,3.393867492675781,3.831233978271485,#
2.455036163330078,-6.235695838928223,0.3684946894645691,0.0733016654849052,3.159301996231079,3.4207446575164795,#
1.9142580032348635,-5.192424774169922,-1.5984054803848269,0.2418954968452453,3.046905994415283,3.202061176300049,#
0.9762716889381408,-6.180660724639893,-2.297109842300415,1.2265812158584597,2.7940151691436768,2.7207136154174805,#
1.1389836072921753,-5.113461971282959,-2.96949315071106,1.9156169891357424,2.536237955093384,2.305337429046631,#
1.1389836072921753,-5.113461971282959,-2.96949315071106,1.900956630706787,2.4262852668762207,2.13552188873291,#
0.9571290016174316,-5.355136871337891,-3.3332018852233887,1.196038842201233,2.051224946975708,1.7824522256851196,#
0.5838487148284912,-6.647261142730713,-3.538984537124634,0.175924003124237,1.5161229372024536,1.5087926387786863,#
0.6125625967979431,-7.271787643432617,-4.211367607116699,-0.2651077210903168,1.2290246486663818,1.3963968753814695,#
0.12921242415905,-8.202595710754395,-4.271188735961914,-0.7928797006607056,0.5534276366233826,1.189930438995361,#
0.12921242415905,-8.202595710754395,-4.271188735961914,-0.9944592714309692,0.2675510942935943,1.099524974822998,#
0.4426721632480621,-7.829315185546875,-4.031906127929688,-1.3524158000946045,-0.0342074446380138,0.9407047629356384,#
0.2703889608383178,-7.759923934936523,-4.151546955108643,-1.8655275106430051,-0.3029802441596985,0.7953230738639832,#
0.4091726541519165,-8.13798999786377,-4.536791324615479,-2.169729471206665,-0.4471401870250702,0.7501204013824463,#
0.0526420958340168,-8.71226692199707,-5.441278457641602,-2.5069169998168945,-0.785549521446228,0.6743753552436829,#
0.0526420958340168,-8.71226692199707,-5.441278457641602,-2.588770627975464,-1.0811996459960938,0.5607577562332153,#
0.6317051649093628,-9.30329418182373,-6.309873104095459,-2.6767325401306152,-1.2290246486663818,0.4886777997016907,left
1.4021940231323242,-9.695716857910156,-6.9511494636535645,-2.939396858215332,-1.5087926387786863,0.3408527672290802,left
0.5862415432929993,-9.422935485839844,-6.474977493286133,-3.031023979187012,-1.7812305688858032,0.2834331095218658,left
0.8350951075553894,-9.968499183654783,-8.037490844726562,-3.161745309829712,-2.505695581436157,0.1221694499254226,left
2.8522443771362305,-11.755936622619627,-8.212166786193848,-3.5099282264709477,-3.3144571781158447,-0.0048867780715227,left
4.065405368804932,-13.816156387329102,-8.37727165222168,-3.6601967811584473,-3.7078425884246826,-0.1062874197959899,left
5.302494525909424,-14.170295715332031,-9.456435203552246,-3.908200740814209,-4.580132484436035,-0.287098228931427,left
6.941578388214111,-14.603395462036133,-10.236495971679688,-4.322355270385742,-5.61857271194458,-0.5558710098266602,left
9.073582649230955,-14.328221321105955,-10.791629791259766,-4.708410739898682,-6.231863498687744,-0.7061393857002258,left
9.073582649230955,-14.328221321105955,-10.791629791259766,-5.663775444030762,-7.644142150878906,-1.0042328834533691,left
10.918450355529783,-12.435498237609863,-11.071590423583984,-6.306386947631836,-8.507880210876465,-1.2644537687301636,left
12.988241195678713,-12.162715911865234,-9.901500701904297,-7.283742427825928,-10.350194931030272,-2.0732154846191406,left
15.541382789611816,-13.926226615905762,-12.220145225524902,-7.625816822052002,-12.088666915893556,-3.088443756103516,left
16.618154525756836,-18.63530158996582,-9.377471923828123,-7.441340923309326,-12.72516918182373,-3.497711420059204,left
14.749359130859377,-25.217958450317383,-7.307680606842041,-5.882458686828613,-13.105116844177246,-4.373666286468506,left
14.749359130859377,-25.217958450317383,-7.307680606842041,-2.839218139648437,-12.78991985321045,-4.577689170837402,left
13.488340377807615,-22.01396942138672,-7.683353424072266,-1.6700563430786133,-12.116765975952148,-4.04869556427002,left
13.495519638061523,-13.421342849731444,-8.298308372497559,0.3090887069702148,-11.138188362121582,-2.6364166736602783,left
15.184853553771973,-13.318450927734377,-2.0817556381225586,0.5815265774726868,-9.659937858581545,-1.257123589515686,left
14.78285789489746,-14.541182518005373,3.012563943862915,0.2174616158008575,-8.84628963470459,-0.712247908115387,left
14.78285789489746,-14.541182518005373,3.012563943862915,-1.067760944366455,-7.098045349121094,-0.1637070626020431,left
13.526626586914062,-12.928421020507812,5.383851051330566,-1.119072198867798,-6.25263261795044,-0.1270562261343002,left
12.337392807006836,-13.036097526550291,6.613761901855469,-1.1532796621322632,-5.006504058837891,-0.0293206684291362,left
10.604989051818848,-14.696717262268066,6.192624568939209,-0.864959716796875,-3.902092218399048,-0.1856975704431533,left
8.408378601074219,-12.586248397827148,4.07258415222168,-0.5644228458404541,-3.472055673599243,-0.1966928243637085,left
6.697510242462158,-10.08574676513672,2.931207656860352,0.1380514800548553,-2.688949584960937,-0.1099525094032287,left
6.697510242462158,-10.08574676513672,2.931207656860352,0.4544703662395477,-1.979145050048828,-0.0122169442474842,left
5.328815937042236,-9.396614074707031,3.041277408599853,0.3530696928501129,-1.6688346862792969,0.0818535313010215,left
3.2829525470733643,-9.68375301361084,3.373879909515381,-0.0549762547016143,-1.0482138395309448,0.2858764827251434,left
1.7467604875564575,-9.920641899108888,3.335594892501831,-0.393385648727417,-0.5106682777404785,0.4092676639556885,left
1.4141581058502195,-9.379864692687988,2.995814085006714,-0.4837909936904907,-0.3750602006912231,0.4288147687911987,left
1.4141581058502195,-9.379864692687988,2.995814085006714,-0.5070031881332397,-0.31641885638237,0.416597843170166,left
1.4715858697891235,-8.973085403442383,2.761317014694214,-0.4911211729049682,-0.2773246467113495,0.3909422159194946,left
1.062413215637207,-8.776873588562012,2.89052963256836,-0.411711037158966,-0.0781884491443634,0.3042019307613373,#
0.236889436841011,-8.874979019165039,2.957528829574585,-0.3408527672290802,0.2467822879552841,0.2284568697214126,#
-0.1746760606765747,-8.879764556884766,2.2229323387146,-0.2553341388702392,0.4214845895767212,0.1600419729948043,#
-0.1746760606765747,-8.879764556884766,2.2229323387146,-0.0012216945178806,0.6597149968147278,-0.0097735561430454,#
0.6269195079803467,-7.927421569824219,1.4452648162841797,0.1918060332536697,0.7317950129508972,-0.1832541674375534,#
1.887937068939209,-7.755138397216797,0.9571290016174316,0.2773246467113495,0.7757760286331177,-0.2785463333129883,#
2.825923442840576,-7.915457248687744,1.1533405780792236,0.3591781854629516,0.9773555994033812,-0.4532486498355865,#
3.294916868209839,-7.477570533752441,1.0169496536254885,0.4410317242145538,1.099524974822998,-0.5351021885871887,#
3.2781667709350586,-7.109076023101807,0.430708110332489,0.7757760286331177,1.3707412481307983,-0.7281299233436584,#
3.2781667709350586,-7.109076023101807,0.430708110332489,1.3414205312728882,1.706707239151001,-1.0188932418823242,#
2.7900311946868896,-4.687539577484131,-0.1076770275831222,1.4709200859069824,1.8667491674423216,-1.178935170173645,#
1.9046868085861208,-4.620540142059326,-0.9858429431915284,1.4196090698242188,2.238144397735596,-1.5185662508010864,#
1.1700903177261353,-6.077769756317139,-2.053041696548462,1.4745851755142212,2.5594499111175537,-2.0817673206329346,#
1.3016955852508545,-7.197610855102539,-1.978864312171936,1.5601038932800293,2.632751703262329,-2.340766429901123,#
1.3016955852508545,-7.197610855102539,-1.978864312171936,1.8447586297988887,2.4629359245300293,-2.890529155731201,#
2.1511476039886475,-7.511070251464844,-1.1485549211502075,2.296785831451416,2.120861768722534,-3.465947151184082,#
2.7948169708251958,-5.56331205368042,-0.8422735333442688,2.414068460464477,1.9864752292633057,-3.71517276763916,#
2.6153552532196045,-5.151747226715088,-1.0911270380020142,2.266243457794189,1.8679708242416384,-4.119554042816162,#
3.1513471603393555,-6.65204668045044,-1.1389836072921753,2.030456304550171,1.8459802865982056,-4.341902256011963,#
4.610969543457031,-8.078168869018555,-0.4283152520656585,1.2925527095794678,1.640735745429993,-4.698637008666992,#
4.610969543457031,-8.078168869018555,-0.4283152520656585,0.7256865501403809,1.1593880653381348,-5.019942760467529,#
6.314659118652344,-7.604390144348144,0.4546363055706024,0.3261924386024475,0.965138614177704,-5.09813117980957,#
7.456035614013672,-7.113861560821533,0.818345308303833,-0.3274141252040863,0.8014315962791443,-5.209305286407471,#
8.717053413391113,-8.791230201721191,0.3517449200153351,-1.281557559967041,0.7513421177864075,-5.1250081062316895,#
10.214959144592283,-10.494919776916504,-0.229710966348648,-1.8288766145706177,0.6951441764831543,-5.096909523010254,#
10.214959144592283,-10.494919776916504,-0.229710966348648,-2.533794403076172,0.6169556975364685,-4.895329475402832,#
11.33240795135498,-10.80120086669922,-0.5072783827781677,-2.5912139415740967,0.6377245187759399,-4.829358100891113,#
12.26560878753662,-10.892127990722656,-0.5910272002220154,-2.97604775428772,0.7818844318389893,-4.608231544494629,#
13.299307823181152,-11.308479309082031,-0.4019941985607147,-3.2350471019744877,1.0714260339736938,-4.39199161529541,#
13.241880416870115,-9.949356079101562,-0.430708110332489,-3.4610605239868164,1.1703832149505615,-4.250275135040283,#
12.717851638793944,-8.69791030883789,-0.3517449200153351,-3.938743114471436,1.40617036819458,-3.871549844741821,#
12.717851638793944,-8.69791030883789,-0.3517449200153351,-4.1268839836120605,1.5674339532852173,-3.540470600128174,#
13.11984634399414,-8.12841796875,-0.1316052377223968,-4.238058090209961,1.573542594909668,-3.3840935230255127,#
13.96929931640625,-8.434700012207031,0.2033899277448654,-4.576467514038086,1.5796509981155396,-3.104325532913208,#
14.469398498535156,-9.487542152404783,0.8733802437782288,-4.982069969177246,1.7335845232009888,-2.7610294818878174,#
13.471590995788574,-9.956534385681152,2.455036163330078,-5.200753211975098,1.8435369729995728,-2.557006359100342,#
13.471590995788574,-9.956534385681152,2.455036163330078,-5.489073276519775,2.0695505142211914,-2.032899618148804,#
12.64606761932373,-10.74138069152832,3.804587841033936,-5.398667812347412,2.1575124263763428,-1.7604618072509766,#
12.92602825164795,-12.275179862976074,5.711667537689209,-5.050485134124756,2.0964276790618896,-1.147171139717102,#
13.385449409484863,-13.308879852294922,6.355337142944336,-4.615561485290527,2.048781633377075,-0.365286648273468,#
13.42852020263672,-13.44766330718994,6.479763507843018,-4.422533988952637,2.1330785751342773,0.0561979450285434,#
14.163116455078123,-13.03131103515625,5.43170690536499,-4.020596504211426,2.5411245822906494,0.910162389278412,#
14.163116455078123,-13.03131103515625,5.43170690536499,-3.751823663711548,2.905189514160156,1.858197331428528,#
14.694323539733888,-12.516854286193848,5.053641319274902,-3.7420501708984375,3.233825206756592,2.3334364891052246,#
14.555541038513184,-13.533804893493652,4.776073932647705,-4.07801628112793,4.1525397300720215,3.263145923614502,#
13.64626693725586,-13.677373886108398,2.562713146209717,-4.240501403808594,4.6070098876953125,3.636984348297119,#
12.20100212097168,-13.418950080871582,1.7491532564163208,-4.443302631378174,5.359573841094971,4.341902256011963,#
12.20100212097168,-13.418950080871582,1.7491532564163208,-4.343123912811279,5.899562835693359,4.8794474601745605,#
10.760523796081545,-13.205986976623535,2.2157537937164307,-4.168421268463135,5.98752498626709,5.076140880584717,#
9.834501266479492,-12.284751892089844,2.273181438446045,-3.56123948097229,5.815266132354736,5.375455856323242,#
8.757731437683105,-10.293922424316406,0.8685945868492126,-2.7732462882995605,5.299710750579834,5.557487964630127,#
6.929614543914795,-8.274380683898926,-0.1579262912273407,-2.218597173690796,4.929537296295166,5.59536075592041,#
6.929614543914795,-8.274380683898926,-0.1579262912273407,-1.2644537687301636,4.28081750869751,5.469526290893555,#
6.1256256103515625,-6.240481376647949,0.9954141974449158,-0.9443698525428772,3.827568769454956,5.316814422607422,#
4.878964900970459,-6.068198204040527,-0.5862415432929993,-0.7989881634712219,3.726168155670166,5.109126091003418,#
3.658626079559326,-5.577669143676758,-0.7992027401924133,-0.6035171151161194,3.349886417388916,4.659543037414551,#
2.878565788269043,-4.316651821136475,-0.9092726111412048,-0.4898994863033294,3.057901382446289,4.514161109924316,#
2.4358932971954346,-3.1058835983276367,-1.9070796966552732,-0.2895416021347046,2.736595630645752,4.057247161865234,#
2.4358932971954346,-3.1058835983276367,-1.9070796966552732,-0.2956500649452209,2.5264639854431152,3.569791078567505,#
1.6247265338897705,-2.974278450012207,-2.902493953704834,-0.4092676639556885,2.4336154460906982,3.292466402053833,#
0.3397807776927948,-3.4576287269592285,-3.455235719680786,-0.7098045349121094,2.2576913833618164,2.806232213973999,#
0.1722832471132278,-3.90987229347229,-3.266202926635742,-0.9211575984954834,1.8239898681640625,2.3713088035583496,#
-0.0143569353967905,-4.350151538848877,-4.486542701721191,-0.8906152844429016,1.58942449092865,2.1856114864349365,#
-0.0143569353967905,-4.350151538848877,-4.486542701721191,-0.5974085927009583,1.30476975440979,1.775122046470642,#
-0.3397807776927948,-4.268795490264893,-5.036891937255859,-0.4019374847412109,1.1764918565750122,1.610193371772766,#
-1.308874011039734,-3.976871252059937,-5.264209270477295,0.0085518611595034,1.031110167503357,1.3316470384597778,#
-1.998006820678711,-4.182653903961182,-5.321637630462647,0.1856975704431533,0.84541255235672,1.1141853332519531,#
-2.445464611053467,-4.53200626373291,-5.142175674438477,0.1893626451492309,0.7550071477890015,1.0262233018875122,#
-2.4717857837677,-4.8502516746521,-4.230510234832764,0.2064663618803024,0.5424323678016663,0.8686248064041138,#
-2.4717857837677,-4.8502516746521,-4.230510234832764,0.2211267054080963,0.2480039745569229,0.7195780277252197,#
-2.816352128982544,-5.271388053894043,-4.953143119812012,0.2602209150791168,0.0952921733260154,0.6193991303443909,#
-3.060420036315918,-6.26440954208374,-5.769095420837402,0.1844758540391922,-0.2272351831197738,0.4080459475517273,#
-2.71346116065979,-6.747759819030762,-5.364708423614502,-0.1319430023431778,-0.5289937257766724,0.1918060332536697,#
-2.3856441974639893,-6.874579429626465,-4.393222332000732,-0.3628432750701904,-0.7098045349121094,0.1099525094032287,#
-2.3856441974639893,-6.874579429626465,-4.393222332000732,-0.8857284784317017,-0.9321528673171996,-0.0439810007810592,#
-2.462214469909668,-7.211967468261719,-4.924428939819336,-1.1716049909591677,-1.0433270931243896,-0.1258345395326614,left
-1.459621787071228,-7.848458290100098,-6.73818826675415,-1.7531315088272097,-1.336533784866333,-0.3225273489952087,left
-0.3541377484798431,-9.126225471496582,-8.96112060546875,-2.4727096557617188,-1.718924045562744,-0.5851916074752808,left
0.318245381116867,-10.100104331970217,-10.834701538085938,-2.988264799118042,-1.9693715572357176,-0.7403469085693359,left
1.0336993932724,-10.13599681854248,-12.028718948364258,-3.8226819038391113,-2.6926145553588867,-1.060430884361267,left
1.0336993932724,-10.13599681854248,-12.028718948364258,-4.42131233215332,-3.5416924953460693,-1.3585243225097656,left
1.8448662757873533,-10.231709480285645,-13.737194061279297,-4.776825428009033,-4.04503059387207,-1.5185662508010864,left
3.32602334022522,-10.494919776916504,-16.37887191772461,-5.638119697570801,-5.348578453063965,-1.8533105850219729,left
5.824130058288574,-10.02592658996582,-18.163915634155277,-6.499414443969727,-7.109039783477783,-2.254026174545288,left
9.174081802368164,-10.064212799072266,-20.379669189453125,-6.905017375946045,-8.03508472442627,-2.574110269546509,left
9.174081802368164,-10.064212799072266,-20.379669189453125,-7.313063144683838,-9.88350772857666,-3.5306971073150635,left
14.127224922180176,-10.971091270446776,-21.128623962402344,-7.543963432312012,-10.708151817321776,-4.037700176239014,left
17.14936065673828,-14.39761447906494,-19.55175399780273,-7.454780101776123,-11.562116622924805,-4.9075469970703125,left
16.232908248901367,-21.925432205200195,-12.610175132751465,-6.207429885864258,-11.275018692016602,-5.645450115203857,left
14.06740379333496,-16.555938720703125,-12.126825332641602,-4.870895862579346,-11.152849197387695,-5.928883075714111,left
14.06740379333496,-16.555938720703125,-12.126825332641602,-2.828222751617432,-10.91584014892578,-5.592916965484619,left
14.818751335144045,-13.306486129760742,-12.612567901611328,-1.178935170173645,-10.391733169555664,-4.94175386428833,left
23.550159454345703,-25.792234420776367,-0.4689932465553283,-0.1637070626020431,-10.84376049041748,-4.448189735412598,left
20.28874397277832,-19.810178756713867,3.948157548904419,0.5827482342720032,-10.45526123046875,-2.9345102310180664,left
16.441083908081055,-14.031512260437012,4.1347975730896,0.8234220743179321,-9.270216941833496,-2.28579044342041,left
15.113066673278809,-13.052846908569336,5.2115678787231445,0.4508052766323089,-7.068724155426025,-1.0726476907730105,left
15.113066673278809,-13.052846908569336,5.2115678787231445,-0.282211422920227,-5.589252471923828,-0.5399889945983887,left
12.67717456817627,-12.78485107421875,5.6925249099731445,-0.5839699506759644,-4.831801891326904,-0.4080459475517273,left
10.13599681854248,-13.04088306427002,4.955535888671875,-0.7684457898139954,-3.448843479156494,-0.2699944972991943,left
8.331808090209961,-12.251251220703123,3.2853453159332275,-0.684148907661438,-2.489813327789306,-0.1649287492036819,left
6.348158359527588,-11.19362449645996,2.007578134536743,-0.6426112651824951,-2.093984365463257,-0.1490467190742492,left
6.348158359527588,-11.19362449645996,2.007578134536743,-0.5241069197654724,-1.327981948852539,-0.2443388998508453,left
4.194617748260498,-10.490135192871094,1.244267821311951,-0.4508052766323089,-1.0030112266540527,-0.3310791850090027,left
2.7900311946868896,-9.934999465942385,1.514656662940979,-0.3738385140895843,-0.5241069197654724,-0.416597843170166,left
2.0123636722564697,-9.98285675048828,2.3856441974639893,-0.333522617816925,-0.2675510942935943,-0.4251496791839599,left
1.940579175949097,-9.992427825927734,2.636890411376953,-0.2968717515468597,-0.2089097648859024,-0.4178195297718048,left
1.7850456237792969,-9.186046600341797,2.203789472579956,-0.1111741960048675,-0.1722589135169983,-0.3591781854629516,left
1.7850456237792969,-9.186046600341797,2.203789472579956,-0.0268772784620523,-0.003665083553642,-0.333522617816925,left
1.4141581058502195,-7.838886737823486,1.935793399810791,-0.1331647038459777,0.123391143977642,-0.3261924386024475,left
1.0336993932724,-7.795816421508789,1.1868400573730469,-0.471574068069458,0.4410317242145538,-0.342074453830719,#
1.5122638940811155,-7.704888820648193,0.3684946894645691,-0.7207997441291809,0.7159129977226257,-0.3970507085323334,#
2.486142873764038,-7.0923261642456055,-0.4163511395454407,-0.7708892226219177,0.7989881634712219,-0.4251496791839599,#
2.486142873764038,-7.0923261642456055,-0.4163511395454407,-0.7415685653686523,0.9761338829994202,-0.5070031881332397,#
3.0269205570220947,-6.474977493286133,-0.6987042427062988,-0.6743753552436829,1.0970816612243652,-0.549762487411499,#
2.9623143672943115,-5.998805999755859,-0.6891329884529114,-0.445918470621109,1.3951750993728638,-0.6902573704719543,#
3.192025184631348,-5.240281581878662,-0.3876372575759887,-0.1172826737165451,1.626075267791748,-0.8893935680389404,#
3.4480574131011963,-4.498506546020508,-0.5168496966362,0.0354291386902332,1.722589135169983,-1.0408836603164673,#
3.830909013748169,-4.663610935211182,-1.5672988891601562,0.2993151545524597,1.9461593627929688,-1.4025052785873413,#
3.830909013748169,-4.663610935211182,-1.5672988891601562,0.6132906079292297,2.203936815261841,-1.878966212272644,#
4.6061835289001465,-5.108676433563232,-2.4574286937713623,0.7281299233436584,2.349318504333496,-2.1416304111480717,#
5.173282146453857,-5.56331205368042,-2.108076810836792,0.5143333673477173,2.618091106414795,-2.5704450607299805,#
5.331209182739258,-6.211767196655273,-1.765903115272522,0.4373666048049927,2.867316722869873,-3.017585277557373,#
5.716453552246094,-7.410572052001953,-2.914458036422729,0.7330166697502136,2.97604775428772,-3.253372430801392,#
5.716453552246094,-7.410572052001953,-2.914458036422729,1.2913310527801514,2.9687178134918213,-3.7567105293273926,#
6.716653347015381,-6.843472957611084,-3.79262375831604,1.1997039318084717,2.8563218116760254,-3.9876108169555664,#
7.848458290100098,-6.836294651031494,-3.187239646911621,0.3371876776218414,2.632751703262329,-4.268600463867188,#
9.004191398620605,-7.814958095550537,-2.5938196182250977,-0.3836120665073395,2.548454761505127,-4.501944541931152,#
10.61695384979248,-9.664610862731934,-2.273181438446045,-0.5974085927009583,2.4885916709899902,-4.564250469207764,#
10.61695384979248,-9.664610862731934,-2.273181438446045,-0.9468132257461548,2.090319395065308,-4.63999605178833,#
12.40439224243164,-9.121439933776855,-2.1990041732788086,-1.9913619756698608,1.803221106529236,-4.385883331298828,#
13.505090713500977,-8.752944946289062,-2.849851608276367,-2.687727928161621,1.815437912940979,-4.214846134185791,#
13.868800163269045,-10.07139015197754,-3.373879909515381,-3.800691604614258,2.032899618148804,-3.9301912784576416,#
14.505290985107422,-10.901700019836426,-2.809173583984375,-4.100006580352783,2.1623992919921875,-3.814130306243897,#
15.326029777526855,-11.655439376831056,-0.8350951075553894,-4.389548301696777,2.4165117740631104,-3.540470600128174,#
15.326029777526855,-11.655439376831056,-0.8350951075553894,-4.343123912811279,2.724378824234009,-3.1495285034179688,#
16.438692092895508,-12.29671573638916,0.7082754969596863,-4.424977779388428,2.779355049133301,-2.8746471405029297,#
15.749558448791504,-12.748958587646484,1.3423734903335571,-4.596014499664307,3.0359108448028564,-2.140408754348755,#
14.423934936523438,-13.950156211853027,1.643869161605835,-4.798815727233887,3.393867492675781,-1.241241693496704,#
14.10568904876709,-15.146567344665527,2.68953275680542,-4.83057975769043,3.5942251682281494,-0.7598939538002014,#
14.10568904876709,-15.146567344665527,2.68953275680542,-4.829358100891113,3.844672679901123,0.3347443044185638,#
13.720444679260254,-15.378670692443848,2.8977081775665283,-4.814697742462158,3.990054130554199,0.8625163435935974,#
12.306286811828612,-15.90987777709961,2.967100143432617,-4.8647871017456055,4.470180034637451,1.8814095258712769,#
11.842079162597656,-16.122838973999023,2.438286304473877,-4.91854190826416,4.83668851852417,2.8245575428009038,#
12.086146354675291,-16.910078048706055,0.8925228118896484,-4.890442848205566,4.958858013153076,3.231381893157959,#
11.90668487548828,-15.943376541137695,0.1890329867601394,-4.037700176239014,4.911211490631104,3.931412696838379,#
11.90668487548828,-15.943376541137695,0.1890329867601394,-2.916184663772583,5.051706790924072,4.549590110778809,#
11.45205020904541,-13.66062355041504,-0.861416220664978,-2.415289878845215,5.1274518966674805,4.789042472839356,#
10.681561470031738,-12.10768222808838,-1.0217353105545044,-1.6065282821655271,5.215413570404053,5.060258388519287,#
9.33440113067627,-9.169296264648438,-0.8805587291717529,-0.9797989726066588,5.265503406524658,5.133560657501221,#
7.683353424072266,-7.554140567779541,-1.94297194480896,-0.8283088207244873,5.18975830078125,5.090800762176514,#
7.683353424072266,-7.554140567779541,-1.94297194480896,-0.310310423374176,4.802481174468994,5.051706790924072,#
6.123232841491699,-6.838686943054199,-0.7776673436164856,-0.258999228477478,4.545925140380859,4.950306415557861,#
5.187639236450195,-6.348158359527588,0.3924228847026825,-0.1661504507064819,3.922861099243164,4.7255144119262695,#
4.587040901184082,-5.544170379638672,-1.1748759746551514,-0.0415376126766204,3.211834669113159,4.396878719329834,#
3.462414264678955,-4.570291519165039,-1.308874011039734,0.0781884491443634,2.9296233654022217,4.206294059753418,#
2.3306093215942383,-4.65643310546875,-0.4881358444690704,0.175924003124237,2.4922568798065186,3.7799227237701416,#
2.3306093215942383,-4.65643310546875,-0.4881358444690704,0.1869192570447921,2.1306352615356445,3.330339193344116,#
1.306481122970581,-5.051248073577881,-1.0552347898483276,0.2211267054080963,1.93272066116333,3.0847785472869877,#
0.1196411252021789,-5.0201416015625,-2.1128623485565186,0.3762818872928619,1.641957402229309,2.649855375289917,#
-0.4546363055706024,-5.082355499267578,-1.1222338676452637,0.3591781854629516,1.3194299936294556,2.354205369949341,#
-1.0336993932724,-5.637490272521973,-0.4618147313594818,0.4019374847412109,1.225359559059143,2.203936815261841,#
-1.0336993932724,-5.637490272521973,-0.4618147313594818,0.5827482342720032,1.2180293798446655,1.885074615478516,#
-1.6845470666885376,-4.869394302368164,-0.7585247755050659,0.5949652194976807,1.202147364616394,1.770235300064087,#
-2.6009981632232666,-4.431507587432861,-0.9212367534637452,0.5803048610687256,1.1691615581512451,1.6138584613800049,#
-3.2829525470733643,-5.101497650146484,-0.430708110332489,0.549762487411499,1.0274450778961182,1.4196090698242188,#
-3.644268989562988,-5.544170379638672,-0.0909272655844688,0.5900784730911255,0.9602518677711488,1.2937743663787842,#
-3.644268989562988,-5.544170379638672,-0.0909272655844688,0.7611156702041626,0.7660024166107178,1.044548749923706,#
-3.938585996627808,-4.4027934074401855,-0.3780659735202789,0.836860716342926,0.6377245187759399,0.8893935680389404,#
-4.4027934074401855,-3.2781667709350586,-0.6819544434547424,0.7195780277252197,0.5851916074752808,0.8344173431396484,#
-4.73300313949585,-4.019941806793213,-0.430708110332489,0.2651077210903168,0.4361449182033539,0.6694886088371277,#
-4.907679080963135,-4.711467742919922,-0.2009970992803573,0.0720799788832664,0.3213056325912475,0.53143709897995,#
-5.056034088134766,-5.338387489318848,-0.6652047038078308,-0.200357899069786,0.0965138673782348,0.2748812437057495,#
-5.056034088134766,-5.338387489318848,-0.6652047038078308,-0.3567348122596741,-0.1221694499254226,0.0305423624813556,#
-5.132604122161865,-5.843273162841797,-1.0600204467773438,-0.445918470621109,-0.199136197566986,-0.0977355539798736,#
-5.192424774169922,-5.749952793121338,-1.2562319040298462,-0.5583143830299377,-0.3066453039646148,-0.3494046330451965,#
-5.259423732757568,-6.257230758666992,-1.0552347898483276,-0.6988092660903931,-0.3115321099758148,-0.5253286361694336,#
-4.993820667266846,-7.664210796356201,-1.2490534782409668,-0.7647807598114014,-0.2980934381484985,-0.5851916074752808,#
-4.993820667266846,-7.664210796356201,-1.2490534782409668,-0.9333745837211608,-0.3090887069702148,-0.6963658928871155,#
-4.78803825378418,-8.638089179992676,-2.311466693878174,-1.0176715850830078,-0.31641885638237,-0.7183563709259033,#
-4.395615100860596,-9.336793899536133,-4.6061835289001465,-1.1312891244888306,-0.2761029601097107,-0.6951441764831543,#
-3.783052444458008,-9.26740264892578,-7.396214485168457,-1.0201148986816406,-0.2345653474330902,-0.6658235192298889,#
-2.124826431274414,-9.485149383544922,-8.60219669342041,-1.0042328834533691,-0.2638860046863556,-0.6193991303443909,#
-0.9882357716560364,-9.57607650756836,-5.606383323669434,-0.9003888368606567,-0.200357899069786,-0.4654656052589416,#
-0.9882357716560364,-9.57607650756836,-5.606383323669434,-1.1117420196533203,-0.1258345395326614,-0.3469612300395965,#
0.1244267746806144,-11.155338287353516,-6.348158359527588,-1.2363548278808594,-0.3115321099758148,-0.31641885638237,#
0.3254238963127136,-13.464412689208984,-8.429913520812988,-1.5161229372024536,-1.123958945274353,-0.3286358118057251,#
1.184447169303894,-14.06261920928955,-10.061819076538086,-1.7592401504516602,-2.1220834255218506,-0.3701734542846679,#
2.53399920463562,-13.964512825012209,-10.877771377563477,-2.0267910957336426,-2.679175853729248,-0.388498842716217,left
2.53399920463562,-13.964512825012209,-10.877771377563477,-2.90396785736084,-3.925304412841797,-0.5473191142082214,left
4.335794448852539,-13.864013671875,-11.519047737121582,-3.425631284713745,-4.560585498809815,-0.6462763547897339,left
6.166304588317871,-15.263816833496094,-10.023534774780272,-4.727957725524902,-5.8506951332092285,-0.9028322100639344,left
7.448856830596924,-15.687345504760742,-7.582855224609375,-5.790831565856934,-7.41690731048584,-1.3035480976104736,left
7.968099594116211,-15.41217041015625,-4.716253280639648,-6.172000885009766,-8.291640281677246,-1.47825026512146,left
8.298308372497559,-16.39083480834961,-8.408378601074219,-6.679003715515137,-9.992239952087402,-2.035343170166016,left
8.298308372497559,-16.39083480834961,-8.408378601074219,-6.9734320640563965,-11.45949363708496,-2.536237955093384,left
9.21715259552002,-15.455240249633787,-16.582260131835938,-7.083384990692139,-12.005592346191406,-2.6718456745147705,left
11.665009498596191,-17.357534408569336,-17.175682067871094,-5.4255452156066895,-12.42707633972168,-3.011476993560791,left
16.9603271484375,-18.254844665527344,-8.539983749389648,-2.680397748947144,-12.468613624572754,-2.967495918273926,left
18.029918670654297,-18.910478591918945,-2.531606435775757,-2.0548901557922363,-12.7153959274292,-2.6449685096740723,left
18.029918670654297,-18.910478591918945,-2.531606435775757,-1.4183871746063232,-11.76003074645996,-1.8362067937850952,left
13.940585136413574,-17.726030349731445,-1.3184452056884766,-1.142284274101257,-10.494355201721191,-1.5246747732162476,left
12.744174003601074,-12.708280563354492,0.7322037816047668,-0.2431172132492065,-8.170692443847656,-1.2302463054656982,left
13.576875686645508,-10.459028244018556,3.751945972442627,0.2260134816169738,-7.038181781768799,-1.044548749923706,left
13.316057205200195,-12.229716300964355,6.812366485595703,0.1478250324726104,-6.526291847229004,-0.9211575984954834,left
13.316057205200195,-12.229716300964355,6.812366485595703,-0.0977355539798736,-5.221521854400635,-0.8197570443153381,left
11.964113235473633,-13.351950645446776,7.247859954833984,-0.1026223376393318,-4.014488220214844,-0.6120689511299133,left
10.011569023132324,-11.447263717651367,5.699703216552734,-0.0109952501952648,-3.483051061630249,-0.4752391576766968,left
7.984848976135254,-9.820144653320312,4.488935470581055,0.0561979450285434,-2.5130257606506348,-0.2064663618803024,left
6.226124286651611,-9.15493869781494,3.644268989562988,0.0171037223190069,-2.035343170166016,-0.1038440242409706,left
4.658825397491455,-9.4061861038208,2.912065029144287,-0.2052446752786636,-1.1716049909591677,0.0904053896665573,left
4.658825397491455,-9.4061861038208,2.912065029144287,-0.4874561131000519,-0.4752391576766968,0.1539334952831268,left
3.500699520111084,-10.234102249145508,2.2157537937164307,-0.5668662190437317,-0.2162399291992187,0.1612636744976043,left
2.682354211807251,-9.968499183654783,2.2923240661621094,-0.5595360994338989,0.1441599577665329,0.175924003124237,left
1.978864312171936,-9.571290969848633,2.1918253898620605,-0.3799469769001007,0.3371876776218414,0.128277912735939,left
1.184447169303894,-9.008977890014648,2.007578134536743,-0.2675510942935943,0.4422534108161926,0.0720799788832664,left
1.184447169303894,-9.008977890014648,2.007578134536743,-0.1038440242409706,0.6633800864219666,-0.0366508327424526,left
0.5024927258491516,-8.410772323608398,1.4093725681304932,-0.0708582773804664,0.7415685653686523,-0.1026223376393318,#
0.3613162040710449,-7.980063438415527,0.672383189201355,-0.1075091138482093,0.8234220743179321,-0.2260134816169738,#
1.0815558433532717,-7.726424217224121,-0.0813559740781784,-0.2223483920097351,0.8148701786994934,-0.3738385140895843,#
1.921436548233032,-7.314858913421631,-0.277567446231842,-0.2858764827251434,0.7941014170646667,-0.4446967840194702,#
2.3066811561584477,-6.886543273925781,-0.4354937374591827,-0.3860554695129394,0.8405258059501648,-0.577861487865448,#
2.3066811561584477,-6.886543273925781,-0.4354937374591827,-0.4251496791839599,1.045770525932312,-0.6829272508621216,#
2.203789472579956,-6.470191955566406,-0.672383189201355,-0.4251496791839599,1.1838220357894895,-0.7427902817726135,#
1.9884356260299685,-6.448657035827637,-0.729810893535614,-0.258999228477478,1.413500428199768,-0.9345962405204772,#
2.091326951980591,-5.572883605957031,-0.9260223507881165,-0.0256555844098329,1.5320048332214355,-1.189930438995361,#
2.57228422164917,-4.969892501831055,-1.4069796800613403,0.0708582773804664,1.573542594909668,-1.3316470384597778,#
2.57228422164917,-4.969892501831055,-1.4069796800613403,0.0855186134576797,1.698155403137207,-1.6859383583068848,#
3.0484561920166016,-5.663811206817627,-2.273181438446045,0.0610847249627113,1.7885607481002808,-1.8740792274475095,#
3.5126638412475586,-6.376872539520264,-2.1918253898620605,-0.0561979450285434,1.9815884828567505,-2.256469488143921,#
3.665804386138916,-6.608975887298584,-1.8161523342132568,0.1185043603181839,2.0866541862487797,-2.624199867248535,#
3.943371772766113,-7.231109619140625,-2.194218397140503,0.3200839459896087,2.1184182167053223,-2.806232213973999,#
4.646861553192139,-6.364907741546631,-2.65842604637146,0.7806627750396729,2.1330785751342773,-3.220386743545532,#
4.646861553192139,-6.364907741546631,-2.65842604637146,0.5424323678016663,2.0695505142211914,-3.578343152999878,#
5.493920803070068,-5.548955917358398,-3.5054850578308105,0.2199050188064575,2.062220335006714,-3.7310550212860103,#
6.345765590667725,-5.654239654541016,-3.249453067779541,-0.7757760286331177,2.074437141418457,-3.9204177856445312,#
7.381857395172119,-7.652246475219727,-2.65842604637146,-1.6114150285720823,2.076880693435669,-3.931412696838379,#
8.781659126281738,-9.4660062789917,-2.115255117416382,-1.573542594909668,2.028012752532959,-3.9705071449279785,#
8.781659126281738,-9.4660062789917,-2.115255117416382,-1.4122787714004517,1.7567967176437378,-4.062134265899658,#
10.872984886169434,-9.705288887023926,-1.4644075632095337,-1.4477078914642334,1.6700563430786133,-4.109780311584473,#
13.519447326660156,-9.241080284118652,-0.7178468108177185,-1.6834949254989624,1.665169596672058,-4.245388507843018,#
15.211173057556152,-8.834300994873047,-1.098305583000183,-2.4055163860321045,1.9583762884140012,-4.170865058898926,#
16.307086944580078,-9.882357597351074,-1.4691929817199707,-2.663294076919556,2.2283706665039062,-4.113445281982422,#
16.307086944580078,-9.882357597351074,-1.4691929817199707,-3.121429443359375,2.6681809425354004,-3.990054130554199,#
17.316856384277344,-11.050054550170898,-2.091326951980591,-3.700512647628784,3.0273590087890625,-3.595446825027466,#
16.981861114501953,-10.262815475463867,-2.187039852142334,-4.132992267608643,3.257037401199341,-3.2961316108703613,#
15.859628677368164,-10.815558433532717,-0.0837487876415252,-4.698637008666992,3.810465097427368,-2.6022093296051025,#
15.48395538330078,-11.667403221130373,2.1272192001342773,-4.902659893035889,4.008379459381104,-2.255248069763184,#
14.622538566589355,-14.34736442565918,2.691925525665283,-5.28138542175293,4.318689823150635,-1.4232741594314575,#
14.622538566589355,-14.34736442565918,2.691925525665283,-5.222743988037109,4.399322032928467,-0.5326588153839111,#
13.780265808105469,-14.179865837097168,2.455036163330078,-5.23618221282959,4.424977779388428,-0.0342074446380138,#
14.076974868774414,-15.153746604919434,2.031506299972534,-4.993065357208252,4.770717144012451,0.971247136592865,#
14.514862060546877,-15.912269592285156,1.4644075632095337,-4.798815727233887,5.252064228057861,1.94249427318573,#
14.57228946685791,-16.620546340942383,2.1535403728485107,-4.852570533752441,5.51350736618042,2.494700193405152,#
14.57228946685791,-16.620546340942383,2.1535403728485107,-4.889221668243408,6.275844573974609,3.575899839401245,#
13.763516426086426,-16.910078048706055,3.45045018196106,-4.852570533752441,6.545838832855225,4.012044906616211,#
13.332807540893556,-15.742380142211914,1.8544375896453855,-4.620448589324951,6.679003715515137,4.737730979919434,#
11.294123649597168,-12.459427833557127,-0.2536391913890838,-3.941186428070069,6.484754085540772,5.192201614379883,#
8.183453559875488,-10.643275260925291,-1.935793399810791,-3.584451675415039,6.36380672454834,5.3559088706970215,#
6.9320068359375,-8.963513374328613,-0.3732803165912628,-2.780576705932617,5.822595596313477,5.508620262145996,#
6.9320068359375,-8.963513374328613,-0.3732803165912628,-1.92294716835022,5.034603118896484,5.53671932220459,#
5.32403039932251,-6.544370174407959,0.0215354058891534,-1.4648116827011108,4.776825428009033,5.48418664932251,#
4.225724697113037,-5.864808082580566,-0.4905286431312561,-0.4178195297718048,3.97661566734314,5.320479393005371,#
3.5916268825531006,-5.608776092529297,-0.8566305041313171,0.4605787992477417,3.309570550918579,5.017498970031738,#
2.995814085006714,-5.206782341003418,-2.0003998279571533,0.7843278050422668,3.08722186088562,4.77804708480835,#
2.995814085006714,-5.206782341003418,-2.0003998279571533,1.225359559059143,2.724378824234009,4.305251598358154,#
1.7994027137756348,-4.453042984008789,-2.431107759475708,1.2913310527801514,2.569223642349243,4.046252250671387,#
0.9308080077171326,-3.696911096572876,-2.514856576919556,0.905275583267212,2.205158472061157,3.569791078567505,#
0.2560320198535919,-4.747360229492188,-1.8664016723632808,0.4092676639556885,1.8679708242416384,3.083556890487671,#
-0.3086740970611572,-5.584848403930664,-1.9094725847244265,0.1588202863931656,1.6297403573989868,2.8221142292022705,#
-0.8135597109794617,-4.95792818069458,-2.557927370071411,-0.2382304221391677,1.187487006187439,2.360313892364502,#
-0.8135597109794617,-4.95792818069458,-2.557927370071411,-0.4410317242145538,0.7953230738639832,2.007244110107422,#
-1.373480200767517,-4.843072891235352,-3.35713005065918,-0.4862344264984131,0.634059488773346,1.837428450584412,#
-1.727617859840393,-5.297709465026856,-3.488735675811768,-0.5082249045372009,0.3408527672290802,1.5002408027648926,#
-2.2396819591522217,-5.240281581878662,-4.216153621673584,-0.4495835602283478,0.1856975704431533,1.2461284399032593,#
-2.7326035499572754,-5.0201416015625,-4.668396949768066,-0.2932066619396209,0.0293206684291362,1.155722975730896,#
-2.7326035499572754,-5.0201416015625,-4.668396949768066,-0.2137965410947799,-0.0256555844098329,1.0054545402526855,#
-2.8139593601226807,-4.776073932647705,-3.974478244781494,-0.1979145109653473,-0.0623064190149307,0.9284878373146056,#
-3.2135608196258545,-5.422136306762695,-3.948157548904419,-0.1221694499254226,-0.1441599577665329,0.7843278050422668,#
-3.304487943649292,-6.0466628074646,-3.8356947898864746,-0.1942494213581085,-0.2089097648859024,0.6352811455726624,#
-3.4983065128326416,-6.235695838928223,-3.5844480991363525,-0.2162399291992187,-0.2516690790653229,0.5534276366233826,#
-3.4983065128326416,-6.235695838928223,-3.5844480991363525,-0.4654656052589416,-0.3530696928501129,0.4214845895767212,#
-3.749552965164185,-7.188039302825928,-4.347758769989014,-0.7000309228897095,-0.4593571126461029,0.2577775418758392,#
-3.9218363761901855,-7.269395351409912,-5.065605640411377,-0.8942803740501404,-0.5167768001556396,0.21135313808918,left
-3.0388848781585693,-8.599804878234863,-5.498706817626953,-1.433047652244568,-0.6719319820404053,0.1429382413625717,left
-2.0099709033966064,-10.1336030960083,-6.656832218170166,-1.6285187005996704,-0.7794410586357117,0.0757450610399246,left
-1.703689694404602,-10.394421577453612,-6.233303070068359,-2.146517276763916,-1.1361758708953855,-0.2125748395919799,left
-1.703689694404602,-10.394421577453612,-6.233303070068359,-2.5435678958892822,-1.435490965843201,-0.2504473626613617,left
-1.727617859840393,-12.045469284057615,-7.611568450927734,-3.4378480911254883,-2.284568548202514,-0.448361873626709,left
-0.1722832471132278,-14.227723121643066,-7.432106971740723,-4.075572967529297,-3.379206895828247,-0.6169556975364685,left
0.9212367534637452,-14.44068431854248,-7.786244869232178,-4.406651973724365,-3.9705071449279785,-0.7098045349121094,left
2.3569302558898926,-14.160724639892578,-8.489734649658203,-5.366904258728027,-5.308262348175049,-0.9675819873809814,left
2.3569302558898926,-14.160724639892578,-8.489734649658203,-5.923996448516846,-6.060826301574707,-1.1105202436447144,left
3.373879909515381,-13.292129516601562,-7.271787643432617,-7.112705230712891,-7.70767068862915,-1.4635900259017944,left
4.280759334564209,-12.26560878753662,-5.257031440734863,-8.494441986083984,-9.403382301330566,-1.8496454954147337,left
4.369294166564941,-11.83489990234375,-5.065605640411377,-8.87194538116455,-10.136398315429688,-2.255248069763184,left
4.524827480316162,-12.117253303527832,-8.350951194763184,-8.901266098022461,-10.763128280639648,-3.169075489044189,left
6.08016300201416,-15.962519645690918,-12.75613784790039,-6.652126312255859,-10.765572547912598,-3.870327949523926,left
6.08016300201416,-15.962519645690918,-12.75613784790039,-5.133560657501221,-10.724034309387209,-3.7591538429260254,left
9.499505043029783,-20.626131057739254,-12.473784446716309,-2.525242567062378,-10.702043533325195,-3.075005054473877,left
10.636096000671388,-19.15215301513672,-9.104689598083496,-0.7537854909896851,-9.8566312789917,-2.085432529449463,left
11.327622413635254,-19.57328987121582,-1.9716858863830569,-0.1197260618209838,-9.481571197509766,-1.5222313404083252,left
12.031112670898438,-21.339191436767575,4.247260093688965,0.2174616158008575,-8.509101867675781,-0.7452336549758911,left
12.031112670898438,-21.339191436767575,4.247260093688965,0.5412106513977051,-7.805406093597412,-0.5131116509437561,left
11.140981674194336,-18.77169418334961,6.216552734375,1.180156946182251,-5.875128746032715,-0.2309002727270126,left
9.016156196594238,-12.698708534240724,6.585048198699951,1.345085620880127,-4.233171463012695,-0.0305423624813556,left
7.451249599456787,-8.461020469665527,6.372087001800537,1.0482138395309448,-3.676078796386719,0.0855186134576797,left
6.795616626739502,-7.17368221282959,6.604190349578857,-0.1123958900570869,-2.93328857421875,0.3469612300395965,left
6.094519138336182,-10.332208633422852,6.096912384033203,-1.1496145725250244,-2.250361204147339,0.3970507085323334,left
6.094519138336182,-10.332208633422852,6.096912384033203,-1.392731785774231,-1.9693715572357176,0.4239279925823211,left
5.096712112426758,-13.318450927734377,5.608776092529297,-1.192373752593994,-1.453816533088684,0.3689517080783844,left
3.436093330383301,-11.949756622314451,4.847858428955078,-0.5876350998878479,-0.96147358417511,0.2699944972991943,left
1.8544375896453855,-10.00439167022705,4.25922441482544,-0.3445178270339966,-0.7953230738639832,0.2150182276964187,left
0.4426721632480621,-8.896513938903809,3.94097900390625,-0.1539334952831268,-0.5118899941444397,0.1563768982887268,#
0.4426721632480621,-8.896513938903809,3.94097900390625,-0.1795890927314758,-0.4337015450000763,0.1380514800548553,#
-0.12921242415905,-8.721837997436523,3.931407451629639,-0.3323009014129638,-0.3921639025211334,0.1111741960048675,#
-0.0909272655844688,-9.193224906921388,4.082155227661133,-0.5412106513977051,-0.3225273489952087,0.1453816443681717,#
-0.5742774605751038,-9.470791816711426,3.943371772766113,-0.5851916074752808,-0.200357899069786,0.1539334952831268,#
-1.56251323223114,-9.664610862731934,2.9168508052825928,-0.5815265774726868,0.1148392781615257,0.1172826737165451,#
-2.014756679534912,-9.470791816711426,2.093719720840454,-0.471574068069458,0.2431172132492065,0.0965138673782348,#
-2.014756679534912,-9.470791816711426,2.093719720840454,-0.3872771561145782,0.2431172132492065,0.0855186134576797,#
-1.6175479888916016,-8.685946464538574,2.1583259105682373,-0.3677300214767456,0.2907632887363434,0.0684148892760276,#
-1.497907042503357,-8.606983184814453,2.3784656524658203,-0.3371876776218414,0.3677300214767456,0.0598630309104919,#
-2.2157537937164307,-8.84626579284668,2.2061824798583984,-0.310310423374176,0.546097457408905,0.0354291386902332,#
-2.2013967037200928,-8.635696411132812,1.8209381103515625,-0.1747023165225982,0.5607577562332153,-0.0488677769899368,#
-2.2013967037200928,-8.635696411132812,1.8209381103515625,-0.069636583328247,0.5216635465621948,-0.123391143977642,#
-1.459621787071228,-8.13798999786377,1.179661512374878,0.0940704718232154,0.4654656052589416,-0.2797680497169494,#
-0.4881358444690704,-7.288537979125977,0.4283152520656585,0.256555825471878,0.4532486498355865,-0.4727957546710968,#
0.5120640397071838,-6.31944465637207,0.3110669553279876,0.3555130958557129,0.4581354260444641,-0.5888567566871643,#
1.2658032178878784,-5.525027275085449,-0.0382851622998714,0.624285876750946,0.4679089784622192,-0.8234220743179321,#
1.2658032178878784,-5.525027275085449,-0.0382851622998714,0.8906152844429016,0.4874561131000519,-1.09219491481781,#
1.8544375896453855,-4.467400074005127,-0.1674975752830505,1.011563062667847,0.5326588153839111,-1.2497934103012085,#
2.1750757694244385,-3.689732551574707,-0.4211367666721344,1.2522368431091309,0.6817055344581604,-1.6395140886306765,#
2.108076810836792,-3.3236305713653564,-0.3421736359596252,1.313321590423584,0.7611156702041626,-1.847202181816101,#
2.4023938179016118,-2.65842604637146,-0.2249253392219543,1.0017894506454468,0.8588511943817139,-2.2491395473480225,#
3.005385160446167,-3.31884503364563,-0.1674975752830505,0.3726168274879455,0.9736905097961426,-2.702388048171997,#
3.005385160446167,-3.31884503364563,-0.1674975752830505,-0.0488677769899368,1.0469921827316284,-2.9381754398345947,#
3.742374420166016,-4.161118507385254,-0.117248311638832,-0.7281299233436584,1.2387982606887815,-3.347442865371704,#
4.567898273468018,-5.31685209274292,-0.1986042857170105,-0.7831061482429504,1.4550381898880005,-3.8202385902404794,#
5.450850009918213,-7.379465103149414,-0.4953142702579498,-0.7244647741317749,1.5747642517089844,-4.040143966674805,#
6.039484024047852,-8.226524353027344,-0.7369893789291382,-0.7843278050422668,1.8667491674423216,-4.343123912811279,#
6.039484024047852,-8.226524353027344,-0.7369893789291382,-0.9236010909080504,2.0267910957336426,-4.43108606338501,#
6.709475040435791,-8.118846893310547,-0.9667003750801086,-1.3548591136932373,2.2283706665039062,-4.555698871612549,#
7.867600917816162,-8.944371223449707,-0.9834501147270204,-1.2033690214157104,2.205158472061157,-4.737730979919434,#
9.18126106262207,-12.744174003601074,-1.423729419708252,-0.7745543122291565,2.169729471206665,-4.829358100891113,#
10.28913688659668,-14.895320892333984,-1.0121639966964722,0.2223483920097351,1.9754799604415891,-4.949084281921387,#
10.286745071411133,-12.488142013549805,-0.2105683833360672,0.680483877658844,1.9217253923416135,-4.973518371582031,#
10.286745071411133,-12.488142013549805,-0.2105683833360672,0.7293516397476196,1.8667491674423216,-4.931980609893799,#
10.181459426879885,-10.05224895477295,0.5814558863639832,0.4960079491138458,1.4098354578018188,-4.982069969177246,#
11.059626579284668,-8.853443145751953,1.4380863904953003,-0.1331647038459777,0.966360330581665,-4.874560832977295,#
12.44507122039795,-8.82951545715332,2.3545374870300293,-0.5326588153839111,0.8319739699363708,-4.787820339202881,#
13.864013671875,-9.547362327575684,3.35713005065918,-1.37684965133667,0.7000309228897095,-4.520269393920898,#
13.864013671875,-9.547362327575684,3.35713005065918,-1.682273268699646,0.6426112651824951,-4.376109600067139,#
14.47896957397461,-9.66939640045166,4.019941806793213,-2.1966066360473637,0.574196457862854,-3.9301912784576416,#
14.653645515441896,-8.403593063354492,4.5583271980285645,-2.315110921859741,0.5717529654502869,-3.429296493530273,#
15.553346633911133,-8.913264274597168,5.079962730407715,-2.383526086807251,0.6560499668121338,-3.176405668258667,#
15.52224063873291,-8.965906143188477,5.960521221160889,-2.908854484558105,1.0885297060012815,-2.6315298080444336,#
14.845070838928224,-8.958727836608887,6.08016300201416,-3.303461790084839,1.7348061800003052,-2.123305082321167,#
14.845070838928224,-8.958727836608887,6.08016300201416,-3.5184803009033203,2.0231261253356934,-1.8362067937850952,#
14.569897651672363,-7.944170951843262,6.020341873168945,-3.9705071449279785,2.6364166736602783,-1.2033690214157104,#
14.34736442565918,-7.597211837768555,6.142375946044922,-4.233171463012695,3.1812922954559326,-0.499673068523407,#
13.95254898071289,-7.903492927551269,6.017949104309082,-4.958858013153076,3.517258405685425,-0.069636583328247,#
13.430913925170898,-8.606983184814453,4.390829563140869,-5.757846355438232,4.2514967918396,0.8270871639251709,#
13.430913925170898,-8.606983184814453,4.390829563140869,-6.128019332885742,4.643661022186279,1.2998830080032349,#
12.701102256774902,-10.033105850219728,2.7972097396850586,-6.515296459197998,5.326588153839111,2.180724620819092,#
12.239288330078123,-11.401800155639648,2.311466693878174,-6.820720195770264,5.923996448516846,3.046905994415283,#
11.31565761566162,-11.291730880737305,0.8781659603118896,-7.016191482543945,6.101141929626465,3.485494375228882,#
9.396614074707031,-12.04786205291748,0.4833501875400543,-6.945333480834961,6.275844573974609,4.178194999694824,#
9.396614074707031,-12.04786205291748,0.4833501875400543,-6.247745990753174,5.9777512550354,4.624114036560059,#
7.867600917816162,-12.966705322265623,-0.6317051649093628,-5.825039386749268,5.8042707443237305,4.834244728088379,#
6.587440490722656,-11.755936622619627,-0.2847459018230438,-4.8647871017456055,5.366904258728027,5.109126091003418,#
5.594419479370117,-10.978270530700684,0.1316052377223968,-4.374887943267822,5.0956878662109375,5.134781837463379,#
4.984249591827393,-10.652846336364746,0.3254238963127136,-3.263145923614502,4.618005275726318,5.0553717613220215,#
3.747160196304321,-9.511469841003418,-0.3732803165912628,-1.9730366468429563,4.106115341186523,4.897773265838623,#
3.747160196304321,-9.511469841003418,-0.3732803165912628,-1.2461284399032593,3.69562578201294,4.801259517669678,#
2.493321180343628,-8.465806007385254,-0.1579262912273407,0.3445178270339966,2.9345102310180664,4.555698871612549,#
2.2133607864379883,-6.429513931274414,-0.1220339611172676,1.571099042892456,2.7170486450195312,4.132992267608643,#
1.797009825706482,-4.407578945159912,-1.6989041566848757,1.9669280052185056,2.7317090034484863,3.900870323181152,#
0.0263210479170084,-3.3164520263671875,-2.981456995010376,1.8264333009719849,2.704831600189209,3.481829166412353,#
0.0263210479170084,-3.3164520263671875,-2.981456995010376,1.4660333395004272,2.635195016860962,3.324230670928955,#
-1.308874011039734,-3.627518892288208,-3.7567315101623535,0.620620846748352,2.434837102890014,2.916184663772583,#
-1.777867317199707,-5.204389572143555,-3.9912283420562735,0.0366508327424526,2.03412127494812,2.423841953277588,#
-1.7706886529922483,-6.063412666320801,-4.2376885414123535,-0.1466033309698104,1.7800087928771973,2.2198188304901123,#
-1.9118653535842896,-6.362515449523926,-5.513063907623291,-0.1966928243637085,1.2583452463150024,1.8447586297988887,#
-2.311466693878174,-5.422136306762695,-6.6352972984313965,-0.3762818872928619,0.7635590434074402,1.5759859085083008,#
-2.311466693878174,-5.422136306762695,-6.6352972984313965,-0.4764608442783355,0.522885262966156,1.4428211450576782,#
-2.273181438446045,-5.946164608001709,-6.580262184143066,-0.7171346545219421,0.0989572554826736,1.1667182445526123,#
-1.7922240495681765,-6.204589366912842,-6.879364967346191,-0.8783983588218689,-0.1685938388109207,1.0005677938461304,#
-1.761117458343506,-6.51326322555542,-6.65204668045044,-0.9248227477073668,-0.2956500649452209,0.9223793148994446,#
-2.210968255996704,-7.073184013366699,-5.907878875732422,-0.8686248064041138,-0.577861487865448,0.7574505805969238,#
-2.210968255996704,-7.073184013366699,-5.907878875732422,-0.8551861643791199,-0.7330166697502136,0.7207997441291809,#
-1.7443678379058838,-7.032505512237549,-5.783452033996582,-1.007897973060608,-0.893058717250824,0.6255075931549072,left
-1.871187210083008,-7.657032012939453,-6.106483459472656,-1.381736397743225,-1.115407109260559,0.494786262512207,left
-1.3351951837539673,-7.456035614013672,-6.544370174407959,-1.6578394174575806,-1.1679399013519287,0.4202629029750824,left
-1.7874385118484497,-8.528019905090332,-7.539783954620361,-2.087875843048096,-1.501462459564209,0.2321219593286514,left
-1.4213367700576782,-10.241281509399414,-10.29870891571045,-2.282125234603882,-2.0964276790618896,-0.0427593067288398,left
-1.4213367700576782,-10.241281509399414,-10.29870891571045,-2.528907537460327,-2.4323935508728027,-0.1123958900570869,left
-0.0311066936701536,-10.301101684570312,-12.655638694763184,-3.5160367488861084,-3.352329730987549,-0.2333436459302902,left
2.230110645294189,-13.344771385192873,-13.689338684082031,-4.020596504211426,-4.020596504211426,-0.3921639025211334,left
4.565505504608154,-14.203795433044434,-12.483355522155762,-5.221521854400635,-5.678436279296875,-0.6682668924331665,left
5.659025192260742,-13.651052474975586,-11.72722339630127,-6.567829608917236,-7.653915882110596,-1.0799779891967771,left
5.659025192260742,-13.651052474975586,-11.72722339630127,-7.454780101776123,-8.689912796020508,-1.29499614238739,left
7.405786037445068,-13.117453575134276,-12.760924339294434,-9.336189270019531,-10.269563674926758,-1.9925836324691768,left
10.152746200561523,-11.789437294006348,-15.089139938354492,-11.702611923217772,-11.196829795837402,-2.76347279548645,left
13.21316623687744,-10.640881538391112,-18.05384635925293,-12.144865036010742,-11.345876693725586,-3.193509340286255,left
15.218351364135742,-23.674585342407227,-15.347564697265623,-9.805319786071776,-11.24936294555664,-4.642438888549805,left
15.218351364135742,-23.674585342407227,-15.347564697265623,-5.882458686828613,-10.144951820373535,-5.024829387664795,left
12.318251609802246,-30.817163467407227,-9.614361763000488,-4.1965203285217285,-9.674598693847656,-4.613118648529053,left
9.379864692687988,-18.166309356689453,-11.49512004852295,-1.3707412481307983,-9.376504898071287,-3.640649557113648,left
13.196417808532717,-16.472190856933594,-5.601597785949707,-0.9846857786178588,-9.440033912658691,-2.863651990890503,left
15.99601936340332,-22.368106842041016,3.1202406883239746,-1.5539953708648682,-8.465121269226074,-1.595533013343811,left
12.026326179504396,-21.00419807434082,4.878964900970459,-1.627297043800354,-6.2672929763793945,-0.9345962405204772,left
12.026326179504396,-21.00419807434082,4.878964900970459,-1.202147364616394,-5.435318470001221,-0.896723747253418,left
10.076176643371582,-19.74078750610352,5.874379634857178,-0.0720799788832664,-4.424977779388428,-0.7782194018363953,left
9.812965393066406,-14.823535919189451,5.462814331054688,0.4385882914066314,-3.5282537937164307,-0.4801259338855743,left
8.908478736877441,-11.12662410736084,4.4027934074401855,0.3982723951339721,-3.043240785598755,-0.3994940817356109,left
7.183253765106201,-10.473384857177734,3.728017807006836,0.0488677769899368,-2.1196398735046387,-0.2504473626613617,left
7.183253765106201,-10.473384857177734,3.728017807006836,-0.1563768982887268,-1.7372496128082275,-0.1771456897258758,left
5.458028793334961,-10.552348136901855,3.739981651306152,-0.4508052766323089,-1.0934165716171265,-0.0733016654849052,left
3.610769510269165,-10.803594589233398,3.6681969165802,-0.4776825606822967,-0.522885262966156,-0.0904053896665573,left
1.6941183805465698,-10.662418365478516,3.376272678375244,-0.411711037158966,-0.2980934381484985,-0.1258345395326614,left
0.672383189201355,-10.50209903717041,2.7876384258270264,-0.1612636744976043,-0.1575985848903656,-0.1441599577665329,left
0.5240281224250793,-9.891928672790527,2.426322221755981,0.0904053896665573,-0.123391143977642,-0.1722589135169983,left
0.5240281224250793,-9.891928672790527,2.426322221755981,0.152711808681488,-0.0623064190149307,-0.1869192570447921,left
0.4019941985607147,-9.355937004089355,2.2157537937164307,0.1881409436464309,0.2064663618803024,-0.2211267054080963,left
-0.0382851622998714,-9.205188751220703,1.9716858863830569,0.2076880484819412,0.5241069197654724,-0.2516690790653229,#
-0.5335994362831116,-9.035298347473145,1.5361920595169067,0.2284568697214126,0.6597149968147278,-0.2809897363185882,#
-0.4881358444690704,-8.549554824829102,0.6843472719192505,0.3384093642234802,0.8393040895462036,-0.3555130958557129,#
-0.4881358444690704,-8.549554824829102,0.6843472719192505,0.3836120665073395,0.8955020904541016,-0.3970507085323334,#
0.2392822504043579,-7.542177200317383,0.2799602448940277,0.2602209150791168,1.0176715850830078,-0.4495835602283478,#
0.9834501147270204,-5.747560024261475,0.1028913781046867,-0.1356080919504165,1.26567542552948,-0.4581354260444641,#
1.2610174417495728,-5.230710506439209,0.0502492748200893,-0.3371876776218414,1.4110571146011353,-0.5131116509437561,#
1.4715858697891235,-5.187639236450195,-0.0215354058891534,-0.660936713218689,1.659061074256897,-0.6108472347259521,#
1.5720844268798828,-4.8191447257995605,-0.2081755697727203,-0.8209787011146545,1.877744436264038,-0.7550071477890015,#
1.5720844268798828,-4.8191447257995605,-0.2081755697727203,-0.8405258059501648,1.9974703788757324,-0.8612945675849915,#
1.6845470666885376,-4.922036170959473,-0.6293123364448547,-0.785549521446228,2.317554235458374,-1.141062617301941,#
1.868794322013855,-6.159125804901123,-1.727617859840393,-0.5827482342720032,2.698723077774048,-1.4916889667510986,#
1.804188132286072,-7.551748275756836,-2.548356056213379,-0.4520269632339477,2.8978590965271,-1.682273268699646,#
1.514656662940979,-7.484748840332031,-2.53399920463562,-0.100178949534893,3.164188861846924,-2.039008140563965,#
1.514656662940979,-7.484748840332031,-2.53399920463562,0.0623064190149307,3.208169937133789,-2.2344791889190674,#
1.490728497505188,-6.994220733642578,-2.1655044555664062,0.4740174412727356,3.312013864517212,-2.647412061691284,#
1.4859429597854614,-7.381857395172119,-2.3473589420318604,1.1105202436447144,3.3694334030151367,-3.1079907417297363,#
1.6079767942428589,-8.676375389099121,-3.1250264644622803,1.3377554416656494,3.324230670928955,-3.3596599102020264,#
2.555534601211548,-6.561119556427002,-3.002992391586304,0.652384877204895,3.1776275634765625,-3.735941648483277,#
3.948157548904419,-7.666603565216064,-2.2923240661621094,0.1820324808359146,3.1055474281311035,-4.128105640411377,#
3.948157548904419,-7.666603565216064,-2.2923240661621094,0.1563768982887268,3.0420193672180176,-4.21240234375,#
4.898108005523682,-10.226923942565918,-2.0721843242645264,0.7598939538002014,2.846548318862915,-4.306473255157471,#
5.472385883331299,-10.16710376739502,-2.1918253898620605,0.84541255235672,2.6425251960754395,-4.3871049880981445,#
6.388835906982422,-5.637490272521973,-3.314059257507324,-0.1404948681592941,2.349318504333496,-4.4017653465271,#
7.788637638092041,-6.963113307952881,-4.228117942810059,-1.1679399013519287,2.100092887878418,-4.593571662902832,#
7.788637638092041,-6.963113307952881,-4.228117942810059,-1.5515520572662354,1.9388291835784912,-4.659543037414551,#
9.315258979797363,-10.15035343170166,-4.642076015472412,-1.2644537687301636,1.6163017749786377,-4.781712532043457,#
10.676774978637695,-13.438091278076172,-4.110869407653809,-0.5289937257766724,1.1532796621322632,-4.9857354164123535,#
12.344571113586426,-11.148160934448242,-3.16331148147583,-0.6792621612548828,0.9749122262001038,-4.8794474601745605,#
13.363914489746094,-8.774479866027832,-3.2542388439178467,-1.1447278261184692,0.9028322100639344,-4.629000663757324,#
13.363914489746094,-8.774479866027832,-3.2542388439178467,-1.501462459564209,0.998124361038208,-4.439637660980225,#
13.2897367477417,-9.315258979797363,-3.4719858169555664,-1.5588821172714231,0.9553651213645936,-4.33945894241333,#
13.562519073486328,-9.870393753051758,-2.7828526496887207,-1.4758068323135376,0.8527427315711975,-4.073129653930664,#
14.361721992492676,-9.231510162353516,-1.3782659769058228,-1.7653485536575315,0.8979454636573792,-3.827568769454956,#
14.371292114257812,-8.910871505737305,-0.2249253392219543,-2.412846565246582,1.1984822750091553,-3.260702610015869,#
12.904492378234863,-9.473184585571287,0.0215354058891534,-2.762251377105713,1.3780713081359863,-2.783020257949829,#
12.904492378234863,-9.473184585571287,0.0215354058891534,-2.724378824234009,1.3426421880722046,-2.4983651638031006,#
11.1433744430542,-9.219545364379885,0.552742063999176,-2.360313892364502,1.1606097221374512,-1.910730242729187,#
10.016355514526367,-7.640282154083252,0.7441678047180176,-1.9058433771133425,0.8209787011146545,-1.3194299936294556,#
9.76271629333496,-5.747560024261475,0.4091726541519165,-1.7690136432647705,0.6597149968147278,-1.0482138395309448,#
9.69332504272461,-5.058426856994629,1.1868400573730469,-1.605306625366211,0.4471401870250702,-0.5766398310661316,#
9.69332504272461,-5.058426856994629,1.1868400573730469,-1.6028631925582886,0.3603998720645904,-0.3726168274879455,#
9.399007797241213,-5.764309883117676,3.168097257614136,-1.764126896858215,0.1710372269153595,0.0134386392310261,#
9.686145782470703,-6.15673303604126,3.067598581314087,-1.91317355632782,0.0219905003905296,0.3848337531089782,#
10.231709480285645,-5.50349235534668,3.395415067672729,-2.0671072006225586,0.0048867780715227,0.5595360994338989,#
11.263016700744627,-4.800002098083496,4.843072891235352,-2.447054147720337,0.0940704718232154,0.9761338829994202,#
12.504892349243164,-5.960521221160889,6.403193473815918,-2.962609052658081,0.3469612300395965,1.3951750993728638,#
12.504892349243164,-5.960521221160889,6.403193473815918,-3.668748617172241,0.5986303091049194,1.7445796728134155,#
12.978670120239258,-4.438685894012451,4.680361270904541,-5.028494358062744,1.5552170276641846,2.5667803287506104,#
12.067005157470703,-6.305087566375732,2.3712873458862305,-5.909336090087891,2.597322702407837,3.2154998779296875,#
11.33958625793457,-12.409178733825684,2.282752752304077,-6.029062271118164,3.040797472000122,3.584451675415039,#
11.60279655456543,-16.091732025146484,1.852044701576233,-6.206208229064941,3.7017343044281006,4.42131233215332,#
11.60279655456543,-16.091732025146484,1.852044701576233,-6.169557094573975,3.946073293685913,4.84279727935791,#
11.38026523590088,-16.381263732910156,1.9070796966552732,-5.70409107208252,4.444524765014648,5.393780708312988,#
10.435098648071287,-17.443675994873047,3.0101709365844727,-4.749948024749756,4.444524765014648,5.737077236175537,#
9.53779125213623,-16.323835372924805,2.366501569747925,-3.924082517623901,4.172086715698242,5.76884126663208,#
8.398807525634766,-13.694124221801758,0.3828516006469726,-1.8264333009719849,3.35843825340271,5.548936367034912,#
6.369694232940674,-10.784451484680176,-0.3996013700962066,-0.2883199155330658,2.659628868103028,5.153107643127441,#
6.369694232940674,-10.784451484680176,-0.3996013700962066,0.2467822879552841,2.284568548202514,4.886777877807617,#
4.721039295196533,-10.028319358825684,-0.2847459018230438,0.9309312105178832,1.3988401889801023,4.371222972869873,#
5.060819625854492,-9.324830055236816,-1.5433706045150757,1.400061845779419,0.911384105682373,4.029148578643799,#
5.776273727416992,-6.628118515014648,-2.89052963256836,1.510014295578003,0.943148136138916,3.886210203170776,#
4.735395908355713,-5.197210788726807,-2.335394859313965,1.4477078914642334,1.26567542552948,3.6846303939819336,#
4.735395908355713,-5.197210788726807,-2.335394859313965,1.2693406343460083,1.4281609058380127,3.6027772426605225,#
4.000799655914307,-6.317051887512207,-2.452643394470215,0.813648521900177,1.645622491836548,3.3254523277282715,#
3.749552965164185,-8.396414756774902,-2.675175428390503,0.833195686340332,1.767791986465454,3.051792860031128,#
3.847658634185791,-7.245467185974121,-2.9216365814208984,0.9309312105178832,1.8410935401916504,2.977269411087036,#
3.25663161277771,-5.321637630462647,-3.5437703132629395,0.9309312105178832,2.0842106342315674,2.734152317047119,#
3.25663161277771,-5.321637630462647,-3.5437703132629395,0.7501204013824463,2.068328857421875,2.5240206718444824,#
2.2468602657318115,-5.235496044158936,-4.19701099395752,0.0256555844098329,2.030456304550171,2.42995023727417,#
1.2227323055267334,-5.946164608001709,-4.603790760040283,-0.8441908955574036,1.7213674783706665,2.245474576950073,#
1.093519926071167,-6.6831536293029785,-4.694717884063721,-1.2473500967025757,1.5063492059707642,2.1770594120025635,#
0.8973084688186646,-7.781459331512451,-4.776073932647705,-1.8435369729995728,0.9504783153533936,1.94249427318573,#
0.8997013568878174,-8.360522270202637,-5.917449951171875,-2.412846565246582,0.2687727808952331,1.6871600151062012,left
0.8997013568878174,-8.360522270202637,-5.917449951171875,-2.7817983627319336,-0.0537545569241046,1.573542594909668,left
1.1676974296569824,-8.142775535583496,-7.666603565216064,-3.429296493530273,-0.6755970120429993,1.2852225303649902,left
1.0169496536254885,-8.889336585998535,-8.142775535583496,-3.8727715015411377,-1.435490965843201,0.999346137046814,left
1.852044701576233,-9.34875774383545,-9.193224906921388,-4.023039817810059,-1.7567967176437378,0.8686248064041138,left
2.596212387084961,-9.006584167480469,-11.545370101928713,-4.515382766723633,-2.374974012374878,0.6132906079292297,left
2.596212387084961,-9.006584167480469,-11.545370101928713,-4.773159980773926,-2.7561426162719727,0.4691306948661804,left
3.263810157775879,-9.274580955505373,-12.74656581878662,-5.420658111572266,-3.810465097427368,0.1319430023431778,left
4.323830604553223,-9.889535903930664,-14.160724639892578,-5.662554264068604,-5.269168376922607,-0.3640649616718292,left
5.091926097869873,-10.956734657287598,-14.845070838928224,-5.573369979858398,-6.1402363777160645,-0.6584933400154114,left
7.168896198272705,-10.578668594360352,-14.249258041381836,-5.684544086456299,-7.969113349914551,-1.2583452463150024,left
9.432506561279297,-11.172088623046877,-13.325629234313965,-5.763954639434815,-9.778443336486816,-2.042673110961914,left
9.432506561279297,-11.172088623046877,-13.325629234313965,-5.9606475830078125,-10.493133544921877,-2.4812614917755127,left
10.26520824432373,-12.457035064697266,-11.904292106628418,-5.376677513122559,-11.632974624633787,-3.32300877571106,left
11.554940223693848,-15.787843704223633,-8.350951194763184,-4.5349297523498535,-11.940841674804688,-3.823903799057007,left
10.571491241455078,-18.348163604736328,-7.8077802658081055,-3.700512647628784,-11.483927726745604,-3.878880023956299,left
8.353343963623047,-14.234902381896973,-10.090532302856444,-2.004800796508789,-10.52978515625,-3.3022403717041016,left
8.353343963623047,-14.234902381896973,-10.090532302856444,-1.1337324380874634,-10.518789291381836,-2.947948932647705,left
12.480962753295898,-14.33061408996582,-7.054040908813477,0.0305423624813556,-10.208478927612305,-1.8423151969909668,left
16.34537124633789,-11.952149391174316,-1.706082463264465,-0.5192201733589172,-8.08028793334961,-1.1251806020736694,left
14.651252746582031,-12.63649559020996,3.81655216217041,-0.8564078211784363,-6.868366718292236,-0.8808417320251465,left
12.335000991821287,-16.14198112487793,9.31047248840332,-0.96147358417511,-5.01016902923584,-0.8222004175186157,left
11.389835357666016,-17.249858856201172,11.164910316467283,-0.1600419729948043,-4.032813549041748,-0.660936713218689,left
11.389835357666016,-17.249858856201172,11.164910316467283,0.3506263196468353,-3.575899839401245,-0.549762487411499,left
9.688538551330566,-11.825328826904297,9.037691116333008,0.5851916074752808,-2.6975014209747314,-0.2516690790653229,left
7.980063438415527,-8.69791030883789,6.982256412506104,0.3286358118057251,-2.222262382507324,-0.1111741960048675,left
5.749952793121338,-9.772287368774414,5.651846885681152,-0.3994940817356109,-1.2974395751953125,0.0830752253532409,left
3.828516006469727,-11.234301567077637,5.536991596221924,-0.7366817593574524,-0.6218425035476685,0.1612636744976043,left
3.828516006469727,-11.234301567077637,5.536991596221924,-0.7721109390258789,-0.3994940817356109,0.1417165547609329,left
2.4502503871917725,-12.248858451843262,5.740381240844727,-0.5656445622444153,-0.1685938388109207,0.0867403075098991,left
1.6773687601089478,-12.366107940673828,5.039284706115723,-0.2907632887363434,0.0378725305199623,0.1062874197959899,left
0.818345308303833,-10.966304779052734,4.053441524505615,-0.1160609796643257,0.1832541674375534,0.0574196390807628,left
0.0263210479170084,-9.69332504272461,3.44327163696289,0.1270562261343002,0.4752391576766968,-0.0476460866630077,#
0.0263210479170084,-9.69332504272461,3.44327163696289,0.1417165547609329,0.730573296546936,-0.0745233595371246,#
-0.794417142868042,-8.858229637145996,3.06999135017395,0.0769667476415634,0.836860716342926,-0.0671931952238082,#
-1.4069796800613403,-8.970691680908203,2.995814085006714,-0.003665083553642,0.943148136138916,-0.0830752253532409,#
-1.672582983970642,-9.355937004089355,2.565105676651001,-0.0158820282667875,0.9883508682250975,-0.0965138673782348,#
