accX,accY,accZ,gyrX,gyrY,gyrZ,annotation
9.176474571228027,-2.9527432918548584,0.9451649785041808,-0.0708582773804664,0.0366508327424526,0.0146603342145681,#
9.159724235534668,-2.868994235992432,0.8063812851905823,-0.069636583328247,0.0305423624813556,0.0134386392310261,#
9.257830619812012,-2.9048867225646973,0.8590233325958252,-0.0574196390807628,0.0134386392310261,0.0097735561430454,#
9.346364974975586,-2.9551358222961426,0.8446664214134216,-0.0415376126766204,0.0061084721237421,0.0061084721237421,#
9.34875774383545,-2.902493953704834,0.8303093910217285,-0.0085518611595034,-0.003665083553642,-0.0024433890357613,#
9.396614074707031,-2.8354949951171875,0.9212367534637452,-0.0293206684291362,-0.0048867780715227,-0.003665083553642,#
9.396614074707031,-2.8354949951171875,0.9212367534637452,-0.0525328628718853,0.003665083553642,0.0012216945178806,#
9.375079154968262,-2.959921598434448,0.8853443264961243,-0.0879620015621185,0.0342074446380138,0.0171037223190069,#
9.329615592956545,-2.864208698272705,0.9547362923622132,-0.1087308079004287,0.0549762547016143,0.0305423624813556,#
9.250652313232422,-2.864208698272705,0.9643075466156006,-0.1148392781615257,0.0561979450285434,0.0329857505857944,#
9.31047248840332,-2.833101987838745,0.8398807048797607,-0.1319430023431778,0.0439810007810592,0.0329857505857944,#
9.31047248840332,-2.833101987838745,0.8398807048797607,-0.1392731666564941,0.0452026948332786,0.0268772784620523,#
9.274580955505373,-2.9240293502807617,0.8853443264961243,-0.1368297785520553,0.0476460866630077,0.0146603342145681,#
9.276973724365234,-2.988635540008545,0.9092726111412048,-0.1014006435871124,0.0366508327424526,-0.0048867780715227,#
9.284152030944824,-2.9168508052825928,0.906879723072052,-0.0830752253532409,0.0293206684291362,-0.0122169442474842,#
9.34875774383545,-2.9838497638702397,0.8662018179893494,-0.0623064190149307,0.0256555844098329,-0.0219905003905296,#
9.18843936920166,-2.9838497638702397,0.8781659603118896,-0.0513111688196659,0.0146603342145681,-0.0232121963053941,#
9.18843936920166,-2.9838497638702397,0.8781659603118896,-0.0452026948332786,0.007330167107284,-0.0207688063383102,#
9.315258979797363,-3.019742012023926,0.8973084688186646,-0.0366508327424526,-0.0048867780715227,-0.0207688063383102,#
9.34157943725586,-3.0173492431640625,0.8973084688186646,-0.0464243926107883,-0.0012216945178806,-0.0219905003905296,#
9.315258979797363,-2.991028308868408,0.784845769405365,-0.0525328628718853,0.0048867780715227,-0.0219905003905296,#
9.315258979797363,-3.058027505874634,0.8494520783424377,-0.0574196390807628,-0.0024433890357613,-0.0207688063383102,#
9.315258979797363,-3.058027505874634,0.8494520783424377,-0.0513111688196659,-0.007330167107284,-0.0195471122860908,#
9.346364974975586,-3.005385160446167,0.8638089299201965,-0.0256555844098329,-0.0195471122860908,-0.0195471122860908,#
9.346364974975586,-3.002992391586304,0.8709874749183655,0.0048867780715227,-0.0305423624813556,-0.0219905003905296,#
9.29611587524414,-2.950350284576416,0.9260223507881165,0.0134386392310261,-0.0366508327424526,-0.0207688063383102,#
9.396614074707031,-2.9168508052825928,0.902094066143036,0.0097735561430454,-0.0305423624813556,-0.0171037223190069,#
9.28175926208496,-2.974278450012207,0.9308080077171326,0.0012216945178806,-0.0244338884949684,-0.0109952501952648,#
9.28175926208496,-2.974278450012207,0.9308080077171326,0.0012216945178806,-0.0256555844098329,-0.007330167107284,#
9.367900848388672,-2.974278450012207,0.8231310248374939,0.0012216945178806,-0.0232121963053941,-0.007330167107284,#
9.351150512695312,-2.9838497638702397,0.8805587291717529,-0.0012216945178806,-0.0146603342145681,0.0061084721237421,#
9.346364974975586,-3.0005996227264404,0.8901299238204956,-0.0012216945178806,-0.0171037223190069,0.0061084721237421,#
9.34157943725586,-2.964707374572754,0.8709874749183655,0.0061084721237421,-0.0158820282667875,0.0109952501952648,#
9.34157943725586,-2.964707374572754,0.8709874749183655,0.007330167107284,-0.0085518611595034,0.0158820282667875,#
9.300901412963867,-2.8977081775665283,0.8781659603118896,-0.0134386392310261,0.003665083553642,0.0256555844098329,#
9.28893756866455,-2.957528829574585,0.82791668176651,-0.0354291386902332,0.0134386392310261,0.031764056533575,#
9.31765079498291,-2.9048867225646973,0.8446664214134216,-0.0378725305199623,0.0146603342145681,0.031764056533575,#
9.360722541809082,-2.964707374572754,0.8638089299201965,-0.0305423624813556,0.0085518611595034,0.0280989725142717,#
9.360722541809082,-2.964707374572754,0.8638089299201965,-0.0232121963053941,0.0061084721237421,0.0219905003905296,#
9.30329418182373,-2.9383859634399414,0.8494520783424377,-0.0195471122860908,0.0085518611595034,0.0207688063383102,#
9.29611587524414,-2.8761727809906006,0.882951557636261,-0.0195471122860908,0.0097735561430454,0.0195471122860908,#
9.353544235229492,-2.902493953704834,0.8901299238204956,-0.0219905003905296,0.0097735561430454,0.0183254163712263,#
9.42054271697998,-2.974278450012207,0.8422735333442688,-0.0207688063383102,0.0097735561430454,0.0158820282667875,#
9.42772102355957,-2.900100946426392,0.8446664214134216,-0.0256555844098329,0.0183254163712263,0.0171037223190069,#
9.42772102355957,-2.900100946426392,0.8446664214134216,-0.0342074446380138,0.0244338884949684,0.0207688063383102,#
9.418149948120115,-2.9168508052825928,0.9044869542121888,-0.0488677769899368,0.0219905003905296,0.0232121963053941,#
9.439685821533203,-2.885744333267212,0.8997013568878174,-0.0488677769899368,0.0232121963053941,0.0232121963053941,#
9.35832977294922,-2.89052963256836,0.7657032012939453,-0.0513111688196659,0.0280989725142717,0.0232121963053941,#
9.315258979797363,-2.902493953704834,0.7776673436164856,-0.0623064190149307,0.0280989725142717,0.0183254163712263,#
9.315258979797363,-2.902493953704834,0.7776673436164856,-0.0488677769899368,0.0061084721237421,0.0048867780715227,#
9.34157943725586,-2.847458839416504,0.7704889178276062,-0.0329857505857944,0.0061084721237421,-0.0061084721237421,#
9.274580955505373,-2.8929224014282227,0.8231310248374939,-0.0012216945178806,-0.0134386392310261,-0.0280989725142717,#
9.33440113067627,-2.8211379051208496,0.787238597869873,0.007330167107284,-0.0195471122860908,-0.0415376126766204,#
9.413363456726074,-2.7828526496887207,0.8015955686569214,-0.0061084721237421,-0.0268772784620523,-0.0586413368582725,#
9.418149948120115,-2.823530912399292,0.8638089299201965,-0.0354291386902332,-0.0207688063383102,-0.0635281130671501,#
9.418149948120115,-2.823530912399292,0.8638089299201965,-0.0390942245721817,-0.0146603342145681,-0.0623064190149307,#
9.35832977294922,-2.8809585571289062,0.8494520783424377,-0.0342074446380138,-0.0097735561430454,-0.0598630309104919,#
9.446864128112791,-2.8115665912628174,0.8709874749183655,-0.0415376126766204,-0.0085518611595034,-0.0586413368582725,#
9.298508644104004,-2.8283162117004395,0.8638089299201965,-0.0549762547016143,-0.003665083553642,-0.0574196390807628,#
9.226724624633787,-2.9168508052825928,0.8422735333442688,-0.0733016654849052,-0.0024433890357613,-0.0586413368582725,#
9.226724624633787,-2.9168508052825928,0.8422735333442688,-0.0684148892760276,-0.0048867780715227,-0.0610847249627113,#
9.31765079498291,-3.002992391586304,0.8901299238204956,-0.0500894747674465,-0.0048867780715227,-0.0647498071193695,#
9.269794464111328,-2.900100946426392,0.9092726111412048,-0.0464243926107883,-0.0048867780715227,-0.0671931952238082,#
9.260223388671877,-3.002992391586304,0.9308080077171326,-0.0476460866630077,-0.007330167107284,-0.0708582773804664,#
9.28175926208496,-3.079562902450561,0.8757730722427368,-0.0390942245721817,-0.0171037223190069,-0.0733016654849052,#
9.38943576812744,-3.086741209030152,0.8542376756668091,-0.0207688063383102,-0.0183254163712263,-0.0708582773804664,#
9.38943576812744,-3.086741209030152,0.8542376756668091,-0.0122169442474842,-0.0195471122860908,-0.0684148892760276,#
9.34875774383545,-3.141776323318481,0.9379864931106568,-0.0048867780715227,-0.0195471122860908,-0.0549762547016143,#
9.31765079498291,-3.1274189949035645,0.9140582084655762,-0.007330167107284,-0.0171037223190069,-0.0390942245721817,#
9.31047248840332,-3.1130621433258057,0.8781659603118896,-0.0085518611595034,-0.0146603342145681,-0.0293206684291362,#
9.343972206115724,-3.122633695602417,0.9188438653945924,-0.0012216945178806,-0.0085518611595034,-0.0097735561430454,#
9.343972206115724,-3.122633695602417,0.9188438653945924,0.003665083553642,-0.007330167107284,-0.0024433890357613,#
9.370293617248535,-3.0963122844696045,0.8303093910217285,0.0085518611595034,-0.0122169442474842,0.007330167107284,#
9.322437286376951,-3.0173492431640625,0.82791668176651,0.0097735561430454,-0.0134386392310261,0.0122169442474842,#
9.298508644104004,-3.019742012023926,0.8470591902732849,0.0134386392310261,-0.0171037223190069,0.0122169442474842,#
9.257830619812012,-2.9623143672943115,0.8494520783424377,0.0268772784620523,-0.0207688063383102,0.0122169442474842,#
9.269794464111328,-2.940778970718384,0.8542376756668091,0.031764056533575,-0.0256555844098329,0.0134386392310261,#
9.269794464111328,-2.940778970718384,0.8542376756668091,0.0329857505857944,-0.0280989725142717,0.0134386392310261,#
9.332008361816406,-2.878565788269043,0.8805587291717529,0.0354291386902332,-0.0232121963053941,0.0183254163712263,#
9.308080673217772,-2.914458036422729,0.8901299238204956,0.031764056533575,-0.0134386392310261,0.0268772784620523,#
9.298508644104004,-2.8666017055511475,0.882951557636261,0.0158820282667875,-0.0061084721237421,0.0329857505857944,#
9.413363456726074,-2.871387243270874,0.8303093910217285,0.0024433890357613,-0.0061084721237421,0.040315918624401,#
9.413363456726074,-2.871387243270874,0.8303093910217285,0.0012216945178806,-0.0012216945178806,0.0415376126766204,#
9.300901412963867,-2.8594231605529785,0.794417142868042,0.0097735561430454,-0.0012216945178806,0.0354291386902332,#
9.193224906921388,-2.847458839416504,0.8159525394439697,0.0378725305199623,-0.0171037223190069,0.0171037223190069,#
9.255437850952148,-2.837887763977051,0.7800601720809937,0.0513111688196659,-0.0244338884949684,0.0048867780715227,#
9.265008926391602,-2.801995038986206,0.82791668176651,0.0574196390807628,-0.0268772784620523,-0.0158820282667875,#
9.265008926391602,-2.801995038986206,0.82791668176651,0.0390942245721817,-0.0256555844098329,-0.0293206684291362,#
9.372685432434082,-2.919243574142456,0.8231310248374939,0.0329857505857944,-0.0244338884949684,-0.0342074446380138,#
9.501898765563965,-2.857030153274536,0.8327022790908813,0.0232121963053941,-0.0146603342145681,-0.0354291386902332,#
9.4660062789917,-2.837887763977051,0.7824530005455017,0.0134386392310261,-0.0061084721237421,-0.0305423624813556,#
9.45164966583252,-2.9790639877319336,0.7800601720809937,-0.007330167107284,0.0012216945178806,-0.0146603342145681,#
9.475577354431152,-2.974278450012207,0.7585247755050659,-0.0061084721237421,0.003665083553642,0.0085518611595034,#
9.475577354431152,-2.974278450012207,0.7585247755050659,0.0024433890357613,0.003665083553642,0.0195471122860908,#
9.44447135925293,-2.8737800121307373,0.8566305041313171,0.0085518611595034,0.0024433890357613,0.0329857505857944,#
9.456435203552246,-2.801995038986206,0.794417142868042,-0.003665083553642,0.003665083553642,0.0342074446380138,#
9.442078590393066,-2.8211379051208496,0.8638089299201965,-0.0134386392310261,0.007330167107284,0.031764056533575,#
9.336793899536133,-2.833101987838745,0.8111668825149536,-0.0232121963053941,0.0097735561430454,0.0256555844098329,#
9.336793899536133,-2.833101987838745,0.8111668825149536,-0.0268772784620523,0.0085518611595034,0.0207688063383102,#
9.42054271697998,-2.847458839416504,0.818345308303833,-0.0329857505857944,0.0207688063383102,0.0232121963053941,#
9.30329418182373,-2.8761727809906006,0.8135597109794617,-0.0439810007810592,0.0280989725142717,0.0293206684291362,#
9.20997428894043,-2.857030153274536,0.7752745151519775,-0.0464243926107883,0.0232121963053941,0.031764056533575,#
9.315258979797363,-2.8594231605529785,0.8015955686569214,-0.0342074446380138,0.0122169442474842,0.0268772784620523,#
9.260223388671877,-2.801995038986206,0.8015955686569214,-0.0024433890357613,0.0061084721237421,0.0122169442474842,#
9.260223388671877,-2.801995038986206,0.8015955686569214,0.0024433890357613,0.0024433890357613,0.0024433890357613,#
9.17886734008789,-2.885744333267212,0.8063812851905823,-0.0061084721237421,-0.007330167107284,-0.0207688063383102,#
9.20040225982666,-2.912065029144287,0.7657032012939453,-0.0097735561430454,-0.0122169442474842,-0.0329857505857944,#
9.257830619812012,-2.945564746856689,0.8255237936973572,-0.0024433890357613,-0.0158820282667875,-0.0366508327424526,#
9.241080284118652,-2.945564746856689,0.8494520783424377,0.0158820282667875,-0.0219905003905296,-0.040315918624401,#
9.241080284118652,-2.945564746856689,0.8494520783424377,0.0195471122860908,-0.0244338884949684,-0.0390942245721817,#
9.300901412963867,-2.895315170288086,0.787238597869873,0.0122169442474842,-0.0256555844098329,-0.0354291386902332,#
9.353544235229492,-3.029313325881958,0.8015955686569214,0.003665083553642,-0.0256555844098329,-0.0280989725142717,#
9.463613510131836,-3.012563943862915,0.8374879360198975,0.0024433890357613,-0.0207688063383102,-0.0207688063383102,#
9.394222259521484,-2.9551358222961426,0.8111668825149536,-0.0012216945178806,-0.0122169442474842,-0.007330167107284,#
9.432506561279297,-3.034099102020264,0.8733802437782288,-0.0061084721237421,-0.0085518611595034,0.007330167107284,#
9.432506561279297,-3.034099102020264,0.8733802437782288,-0.0048867780715227,-0.0048867780715227,0.0122169442474842,#
9.324830055236816,-2.9383859634399414,0.935593605041504,0.0024433890357613,-0.0012216945178806,0.0158820282667875,#
9.29611587524414,-2.902493953704834,0.8685945868492126,0.007330167107284,-0.0024433890357613,0.0134386392310261,#
9.260223388671877,-2.8929224014282227,0.861416220664978,0.0195471122860908,-0.0085518611595034,0.0061084721237421,#
9.336793899536133,-2.9216365814208984,0.9547362923622132,0.0219905003905296,-0.003665083553642,-0.0024433890357613,#
9.336793899536133,-2.9216365814208984,0.9547362923622132,0.0207688063383102,-0.0024433890357613,-0.0061084721237421,#
9.324830055236816,-2.9479575157165527,0.882951557636261,0.0195471122860908,-0.0048867780715227,-0.0097735561430454,#
9.425328254699709,-2.902493953704834,0.9116654396057128,0.0280989725142717,0.003665083553642,-0.0061084721237421,#
9.300901412963867,-2.8737800121307373,0.8207381367683411,0.0305423624813556,0.0048867780715227,-0.0012216945178806,#
9.34875774383545,-2.900100946426392,0.8039883971214294,0.0280989725142717,0.007330167107284,0.007330167107284,#
9.34875774383545,-2.900100946426392,0.8039883971214294,0.0207688063383102,0.0048867780715227,0.0061084721237421,#
9.293723106384276,-2.8211379051208496,0.7226324081420898,0.0195471122860908,0.0024433890357613,0.0012216945178806,#
9.34157943725586,-2.8139593601226807,0.7489535212516785,0.0195471122860908,0.0048867780715227,-0.0109952501952648,#
9.293723106384276,-2.919243574142456,0.8111668825149536,0.0171037223190069,0.0048867780715227,-0.0171037223190069,#
9.238687515258787,-2.945564746856689,0.763310432434082,0.0109952501952648,-0.003665083553642,-0.0219905003905296,#
9.3128662109375,-2.957528829574585,0.818345308303833,0.0134386392310261,-0.007330167107284,-0.0146603342145681,#
9.3128662109375,-2.957528829574585,0.818345308303833,0.0171037223190069,-0.0061084721237421,-0.007330167107284,#
9.353544235229492,-2.900100946426392,0.8350951075553894,0.0293206684291362,0.003665083553642,0.0048867780715227,#
9.360722541809082,-2.857030153274536,0.8566305041313171,0.0048867780715227,0.0085518611595034,0.0061084721237421,#
9.365508079528809,-2.9168508052825928,0.8685945868492126,-0.0146603342145681,0.0122169442474842,0.0109952501952648,#
9.305686950683594,-2.9383859634399414,0.916451096534729,-0.0219905003905296,0.0207688063383102,0.0146603342145681,#
9.305686950683594,-2.9383859634399414,0.916451096534729,-0.0122169442474842,0.0268772784620523,0.0183254163712263,#
9.245866775512695,-2.950350284576416,0.8877372145652771,-0.0122169442474842,0.0171037223190069,0.0207688063383102,#
9.30329418182373,-2.900100946426392,0.9667003750801086,-0.0048867780715227,0.0146603342145681,0.0171037223190069,#
9.298508644104004,-3.041277408599853,0.9092726111412048,-0.0012216945178806,0.0366508327424526,0.0219905003905296,#
9.32004451751709,-3.086741209030152,1.1030912399291992,-0.0109952501952648,0.0513111688196659,0.0268772784620523,#
9.573683738708496,-3.10109806060791,1.0911270380020142,-0.0061084721237421,0.0635281130671501,0.0378725305199623,#
9.573683738708496,-3.10109806060791,1.0911270380020142,-0.0024433890357613,0.0891837030649185,0.0525328628718853,#
9.549755096435549,-2.971885919570923,1.0001999139785769,-0.0293206684291362,0.1319430023431778,0.0855186134576797,#
9.434900283813477,-3.0101709365844727,0.9044869542121888,-0.0586413368582725,0.1429382413625717,0.1148392781615257,#
9.250652313232422,-2.933600425720215,0.7106683850288391,-0.0561979450285434,0.1563768982887268,0.1331647038459777,#
9.07119083404541,-2.847458839416504,0.5479563474655151,-0.0476460866630077,0.1429382413625717,0.1539334952831268,#
9.07119083404541,-2.847458839416504,0.5479563474655151,-0.040315918624401,0.1026223376393318,0.1490467190742492,#
9.382257461547852,-2.8187451362609863,0.4043869972229004,-0.0183254163712263,0.0207688063383102,0.1062874197959899,#
9.291330337524414,-2.723031997680664,0.4977070987224579,0.0280989725142717,-0.031764056533575,0.0280989725142717,#
9.090332984924316,-2.667997360229492,0.5575276613235474,0.0452026948332786,-0.0610847249627113,-0.0146603342145681,#
9.037691116333008,-2.565105676651001,0.6699903011322021,0.0464243926107883,-0.1258345395326614,-0.0928487852215766,#
9.166903495788574,-2.7254250049591064,0.851844847202301,0.0256555844098329,-0.1649287492036819,-0.155155211687088,#
9.166903495788574,-2.7254250049591064,0.851844847202301,0.0183254163712263,-0.1685938388109207,-0.1771456897258758,#
9.18126106262207,-2.739781856536865,0.9236294627189636,0.0293206684291362,-0.1698155403137207,-0.2040229737758636,#
9.14297580718994,-2.7732813358306885,0.9308080077171326,0.0305423624813556,-0.1734806150197982,-0.2125748395919799,#
9.32004451751709,-2.825923442840576,1.0217353105545044,0.0061084721237421,-0.175924003124237,-0.2174616158008575,#
9.40379238128662,-2.967100143432617,1.0480562448501587,-0.0195471122860908,-0.1441599577665329,-0.2052446752786636,#
9.40379238128662,-2.967100143432617,1.0480562448501587,-0.0232121963053941,-0.1258345395326614,-0.1930277347564697,#
9.463613510131836,-2.9766712188720703,0.94037926197052,-0.0280989725142717,-0.0989572554826736,-0.1612636744976043,#
9.387042999267578,-3.060420036315918,1.0049854516983032,-0.0329857505857944,-0.0806318372488021,-0.1270562261343002,#
9.430113792419434,-3.058027505874634,1.062413215637207,-0.0354291386902332,-0.0733016654849052,-0.1099525094032287,#
9.353544235229492,-3.10109806060791,1.0767701864242554,-0.0415376126766204,-0.0452026948332786,-0.0733016654849052,#
9.353544235229492,-3.10109806060791,1.0767701864242554,-0.0574196390807628,-0.0012216945178806,-0.0329857505857944,#
9.391828536987305,-3.086741209030152,1.1030912399291992,-0.0708582773804664,0.0183254163712263,-0.0134386392310261,#
9.475577354431152,-3.1345977783203125,0.9762716889381408,-0.0989572554826736,0.0610847249627113,0.0207688063383102,#
9.501898765563965,-3.098705530166626,0.969093143939972,-0.1075091138482093,0.0830752253532409,0.0342074446380138,#
9.382257461547852,-3.1202406883239746,0.9499505758285522,-0.1160609796643257,0.1221694499254226,0.0635281130671501,#
9.300901412963867,-3.136990547180176,0.8901299238204956,-0.1123958900570869,0.1404948681592941,0.0977355539798736,#
9.300901412963867,-3.136990547180176,0.8901299238204956,-0.1062874197959899,0.1429382413625717,0.1160609796643257,#
9.298508644104004,-3.0939197540283203,0.8709874749183655,-0.0830752253532409,0.1417165547609329,0.1490467190742492,#
9.274580955505373,-3.081955671310425,0.906879723072052,-0.0610847249627113,0.1478250324726104,0.1698155403137207,#
9.255437850952148,-2.964707374572754,0.8350951075553894,-0.0598630309104919,0.1490467190742492,0.1771456897258758,#
9.193224906921388,-2.9383859634399414,0.6795615553855896,-0.0720799788832664,0.1478250324726104,0.1930277347564697,#
9.193224906921388,-2.9383859634399414,0.6795615553855896,-0.0769667476415634,0.1404948681592941,0.199136197566986,#
9.262616157531738,-2.943171739578247,0.5647061467170715,-0.069636583328247,0.0989572554826736,0.1930277347564697,#
9.372685432434082,-2.8809585571289062,0.5359922647476196,-0.0305423624813556,0.0525328628718853,0.1685938388109207,#
9.253045082092283,-2.785245418548584,0.48574298620224,-0.0122169442474842,0.0354291386902332,0.152711808681488,#
9.212367057800291,-2.754138946533203,0.4785645008087158,-0.0061084721237421,-0.0195471122860908,0.1148392781615257,#
9.284152030944824,-2.7421746253967285,0.6269195079803467,0.003665083553642,-0.0879620015621185,0.0598630309104919,#
9.284152030944824,-2.7421746253967285,0.6269195079803467,0.031764056533575,-0.1111741960048675,0.0293206684291362,#
9.300901412963867,-2.711068153381348,0.7393822073936462,0.100178949534893,-0.1453816443681717,-0.0415376126766204,#
9.243474006652832,-2.67278265953064,0.9379864931106568,0.1221694499254226,-0.1722589135169983,-0.1038440242409706,#
9.214759826660156,-2.837887763977051,1.0097711086273191,0.123391143977642,-0.175924003124237,-0.1270562261343002,#
9.339186668395996,-2.833101987838745,1.191625714302063,0.129499614238739,-0.1612636744976043,-0.1453816443681717,#
9.339186668395996,-2.833101987838745,1.191625714302063,0.1246128380298614,-0.1478250324726104,-0.1466033309698104,#
9.458827018737791,-2.801995038986206,1.0695916414260864,0.0855186134576797,-0.1087308079004287,-0.1331647038459777,#
9.554540634155272,-2.837887763977051,1.0408778190612793,0.0268772784620523,-0.0720799788832664,-0.1075091138482093,#
9.501898765563965,-2.895315170288086,0.8949156999588013,0.0085518611595034,-0.0513111688196659,-0.0940704718232154,#
9.434900283813477,-2.957528829574585,0.7465606331825256,0.0109952501952648,-0.0268772784620523,-0.0684148892760276,#
9.387042999267578,-2.8977081775665283,0.7489535212516785,0.0244338884949684,-0.0268772784620523,-0.0549762547016143,#
9.387042999267578,-2.8977081775665283,0.7489535212516785,0.0219905003905296,-0.0280989725142717,-0.0513111688196659,#
9.30329418182373,-2.9216365814208984,0.7561319470405579,0.0085518611595034,-0.0244338884949684,-0.0476460866630077,#
9.26740264892578,-2.9934213161468506,0.8039883971214294,0.0024433890357613,-0.0366508327424526,-0.0427593067288398,#
9.291330337524414,-3.184847116470337,0.818345308303833,0.0024433890357613,-0.0525328628718853,-0.0378725305199623,#
9.494720458984377,-3.483949899673462,1.0671988725662231,0.0464243926107883,-0.0916270837187767,-0.0195471122860908,#
9.494720458984377,-3.483949899673462,1.0671988725662231,0.1123958900570869,-0.1172826737165451,0.0024433890357613,#
9.410971641540527,-3.7734813690185542,1.306481122970581,0.1966928243637085,-0.1588202863931656,0.0806318372488021,#
9.595218658447266,-3.455235719680786,1.983649969100952,0.1588202863931656,-0.199136197566986,0.178367406129837,#
9.796216011047363,-3.905086755752564,2.636890411376953,0.1539334952831268,-0.1795890927314758,0.2089097648859024,#
10.138389587402344,-3.943371772766113,3.153740167617798,0.1404948681592941,-0.1099525094032287,0.3286358118057251,#
10.138389587402344,-3.943371772766113,3.153740167617798,0.123391143977642,0.0916270837187767,0.605960488319397,#
10.750951766967772,-4.95792818069458,3.598805427551269,0.0488677769899368,0.2370087206363678,0.8050966858863831,#
11.375478744506836,-6.049055576324463,4.19701099395752,-0.1673721522092819,0.5155550837516785,1.1667182445526123,#
11.358729362487791,-5.764309883117676,5.481956481933594,-0.2260134816169738,0.6230642199516296,1.3230950832366943,#
12.04786205291748,-6.03230619430542,5.108676433563232,-0.0769667476415634,0.7769976854324341,1.5991979837417605,#
11.83489990234375,-7.556533336639404,4.613362312316895,0.4618005454540252,1.2058125734329224,1.706707239151001,#
11.83489990234375,-7.556533336639404,4.613362312316895,0.6096255779266357,1.4660333395004272,1.7983342409133911,#
11.99761199951172,-7.3675007820129395,5.572883605957031,0.6731536388397217,1.91317355632782,1.9938054084777832,#
12.693923950195312,-6.766902446746826,6.881758213043213,0.4263713657855987,2.317554235458374,2.2747950553894043,#
13.256237030029297,-6.9583282470703125,7.013362884521484,0.1905843466520309,2.489813327789306,2.431172132492065,#
12.98106288909912,-9.28175926208496,6.486942291259766,0.3396310806274414,2.928401470184326,2.5215773582458496,#
12.98106288909912,-9.28175926208496,6.486942291259766,0.522885262966156,3.1715188026428223,2.5618932247161865,#
13.162917137145996,-8.58305549621582,6.541977405548096,1.2082558870315552,4.021818161010742,2.5961008071899414,#
11.92343521118164,-6.903293132781982,5.266602516174316,1.2791141271591189,4.870895862579346,2.5826621055603027,#
10.25802993774414,-5.111069202423096,6.089733123779297,1.099524974822998,5.266724586486816,2.604652643203736,#
8.97787094116211,-5.134997367858887,5.838487148284912,0.6621583700180054,5.893454074859619,2.4055163860321045,#
7.549355506896973,-5.560920238494873,5.752345561981201,-0.2492256760597229,6.245302200317383,2.2210404872894287,#
7.549355506896973,-5.560920238494873,5.752345561981201,-0.546097457408905,6.235528469085693,2.1966066360473637,#
5.9198431968688965,-5.477170467376709,5.733203411102295,-0.7525637745857239,6.181774139404297,2.103757858276367,#
4.390829563140869,-5.120640754699707,4.713860511779785,-1.155722975730896,6.021731853485107,1.9583762884140012,#
2.352144718170166,-4.247260093688965,3.31166672706604,-1.637070655822754,5.773728370666504,1.9412726163864136,#
1.6079767942428589,-4.828716278076172,4.106083393096924,-3.13608980178833,5.028494358062744,1.9950270652771,#
1.6079767942428589,-4.828716278076172,4.106083393096924,-3.66264009475708,4.841575145721436,1.962041258811951,#
1.557727575302124,-6.541977405548096,3.2781667709350586,-3.7799227237701416,4.312581539154053,1.919282078742981,#
0.3110669553279876,-6.63051176071167,1.65583336353302,-2.9467270374298096,3.743271827697754,1.9547111988067627,#
-0.0167497582733631,-7.436892509460449,0.9978070855140686,-2.4885916709899902,3.429296493530273,1.886296272277832,#
0.1531406491994857,-6.671189785003662,0.7513462901115417,-1.8533105850219729,3.147085189819336,1.8093295097351076,#
-0.5048855543136597,-5.340780735015869,1.0815558433532717,-1.4257174730300903,2.8624300956726074,1.7482447624206543,#
-0.5048855543136597,-5.340780735015869,1.0815558433532717,-1.3182083368301392,2.7292654514312744,1.6541743278503418,#
-1.4165509939193726,-5.661418437957764,-0.277567446231842,-1.225359559059143,2.355427026748657,1.5307831764221191,#
-1.8927226066589355,-6.592226982116699,0.114855483174324,-1.142284274101257,2.1856114864349365,1.4257174730300903,#
-1.950150489807129,-6.089733123779297,0.48574298620224,-0.6817055344581604,2.0646636486053467,1.1850436925888062,#
-2.699103832244873,-5.357529640197754,0.3349951505661011,-0.522885262966156,1.8801878690719604,1.0091196298599243,#
-2.699103832244873,-5.357529640197754,0.3349951505661011,-0.6145123243331909,1.7958909273147583,0.9064972996711732,#
-3.428915023803711,-5.54177713394165,0.064606212079525,-0.7525637745857239,1.5882028341293335,0.7098045349121094,#
-3.5605196952819824,-6.178267955780029,-0.8901299238204956,-0.7892146706581116,1.3255385160446167,0.499673068523407,#
-4.118047714233398,-5.886343479156494,-0.763310432434082,-0.8466342687606812,1.1618314981460571,0.388498842716217,#
-4.587040901184082,-5.824130058288574,-0.3900300860404968,-0.73912513256073,0.9834640026092528,0.1453816443681717,#
-4.587040901184082,-5.824130058288574,-0.3900300860404968,-0.9028322100639344,0.8014315962791443,-0.0342074446380138,left
-4.893322467803955,-6.393621921539307,-1.5170495510101318,-1.141062617301941,0.7098045349121094,-0.1270562261343002,left
-4.852644443511963,-7.829315185546875,-2.644068956375122,-1.6309621334075928,0.5155550837516785,-0.3188622593879699,left
-5.278566360473633,-8.5160551071167,-3.869194030761719,-1.8191031217575075,0.4300364553928375,-0.393385648727417,left
-5.326423168182373,-9.635896682739258,-5.637490272521973,-1.9681499004364011,0.2602209150791168,-0.4862344264984131,left
-4.6995038986206055,-9.415757179260254,-6.209374904632568,-1.887518048286438,0.1099525094032287,-0.4153760969638824,left
-4.6995038986206055,-9.415757179260254,-6.209374904632568,-1.8887397050857544,-0.0427593067288398,-0.3713951408863067,left
-4.797609329223633,-10.8370943069458,-7.149754047393799,-1.595533013343811,-0.5118899941444397,-0.2394521236419677,left
-4.953143119812012,-10.995020866394045,-7.8819580078125,-1.045770525932312,-1.0811996459960938,-0.0219905003905296,left
-4.407578945159912,-11.454442024230955,-8.456235885620117,-0.911384105682373,-1.326760172843933,0.0513111688196659,left
-3.90987229347229,-11.454442024230955,-8.812766075134277,-1.007897973060608,-1.794669270515442,0.1661504507064819,left
-3.90987229347229,-11.454442024230955,-8.812766075134277,-1.1606097221374512,-2.047559976577759,0.2089097648859024,left
-3.4719858169555664,-11.229516983032228,-8.405985832214355,-1.72991943359375,-2.742703914642334,0.2052446752786636,left
-3.072384119033813,-12.368499755859377,-8.475377082824707,-2.2344791889190674,-3.579565048217773,0.1844758540391922,left
-2.3162522315979004,-12.40678596496582,-9.241080284118652,-2.647412061691284,-3.9326345920562735,0.1624853760004043,left
-1.730010747909546,-11.10030460357666,-6.781259536743164,-3.612550735473633,-4.499500751495361,0.0366508327424526,left
-0.8949156999588013,-13.024134635925291,-4.479363918304443,-4.804924488067627,-5.215413570404053,-0.1966928243637085,left
-0.8949156999588013,-13.024134635925291,-4.479363918304443,-5.089579105377197,-5.690652847290039,-0.2993151545524597,left
0.028713870793581,-12.509675979614258,-4.285545349121094,-5.065145492553711,-6.418782711029053,-0.4581354260444641,left
0.6484549045562744,-11.57168960571289,-3.907479047775269,-4.719405651092529,-6.881804943084717,-0.5082249045372009,left
2.014756679534912,-10.676774978637695,-0.5264209508895874,-4.547146797180176,-7.072389602661133,-0.6389462351799011,left
2.342573404312134,-11.44247817993164,-1.37587308883667,-4.390769958496094,-7.732104301452637,-1.0494356155395508,left
2.342573404312134,-11.44247817993164,-1.37587308883667,-4.467736721038818,-8.037528038024902,-1.2546802759170532,left
3.704089403152466,-11.105090141296388,-1.22033953666687,-4.449411392211914,-8.218338966369629,-1.2632319927215576,left
5.414957523345947,-11.593226432800291,-1.0863415002822876,-4.198963642120361,-7.782193660736084,-1.5539953708648682,left
6.991827487945557,-9.09511947631836,3.1992037296295166,-3.9424080848693848,-7.106596946716309,-1.767791986465454,left
5.335994720458984,-9.934999465942385,4.658825397491455,-3.143419981002808,-5.585587501525879,-2.161177635192871,left
5.017749309539795,-14.658432006835938,5.620740413665772,-2.299229145050049,-4.963744640350342,-1.7335845232009888,left
5.017749309539795,-14.658432006835938,5.620740413665772,-1.8508671522140503,-4.724292755126953,-1.4037269353866575,left
5.759523868560791,-13.720444679260254,4.522434711456299,-1.3792930841445925,-3.575899839401245,-0.7098045349121094,left
4.216153621673584,-12.914064407348633,5.460421085357666,-1.0201148986816406,-2.640081882476806,-0.3127537965774536,left
1.0217353105545044,-11.882757186889648,5.965306758880615,-0.5033381581306458,-0.7452336549758911,-0.0940704718232154,left
-0.5838487148284912,-11.485548973083496,5.654239654541016,-0.031764056533575,0.1710372269153595,0.0671931952238082,left
-0.5838487148284912,-11.485548973083496,5.654239654541016,0.2651077210903168,0.3591781854629516,0.0623064190149307,left
-1.2179466485977173,-11.035696983337402,5.651846885681152,0.767224133014679,0.624285876750946,-0.0244338884949684,left
-1.9525433778762815,-8.784051895141602,4.948357105255127,0.6658235192298889,0.9639169573783876,0.031764056533575,left
-2.861815929412842,-7.401000499725342,3.522234916687012,0.3640649616718292,1.1630531549453735,0.0745233595371246,#
-3.421736478805542,-8.74337387084961,1.983649969100952,-0.2137965410947799,1.446486234664917,0.0464243926107883,#
-3.421736478805542,-8.74337387084961,1.983649969100952,-0.2919849753379822,1.573542594909668,0.0024433890357613,#
-3.5126638412475586,-9.789037704467772,0.8494520783424377,-0.1466033309698104,1.6285187005996704,-0.0452026948332786,#
-3.6251261234283447,-9.80817985534668,0.8494520783424377,0.3054236173629761,1.8264333009719849,-0.2076880484819412,#
-4.098905563354492,-9.525827407836914,-0.9332008361816406,0.53143709897995,1.9498244524002075,-0.2663294076919555,#
-3.876372575759888,-8.980262756347656,-1.1413763761520386,0.6169556975364685,1.9046216011047363,-0.2968717515468597,#
-2.9838497638702397,-8.642874717712402,-1.0600204467773438,0.4960079491138458,1.695711970329285,-0.365286648273468,#
-2.9838497638702397,-8.642874717712402,-1.0600204467773438,0.4385882914066314,1.637070655822754,-0.3921639025211334,#
-2.7014968395233154,-8.446663856506348,-0.8350951075553894,0.4080459475517273,1.715259075164795,-0.3787252902984619,#
-3.263810157775879,-8.863015174865723,-1.3710873126983645,0.5925218462944031,1.7506881952285769,-0.3775035738945007,#
-3.06999135017395,-9.707681655883787,-1.1724830865859983,0.7916580438613892,1.640735745429993,-0.3347443044185638,#
-2.2683956623077397,-9.025726318359377,-0.6795615553855896,1.1117420196533203,1.4428211450576782,-0.1905843466520309,#
-2.2683956623077397,-9.025726318359377,-0.6795615553855896,1.1716049909591677,1.4477078914642334,-0.1490467190742492,#
-2.4909284114837646,-8.281558990478516,-0.9236294627189636,0.8808417320251465,1.7262543439865112,-0.2076880484819412,#
-3.488735675811768,-8.657232284545898,-1.7850456237792969,0.4593571126461029,1.7286977767944336,-0.261442631483078,#
-3.136990547180176,-9.817750930786133,-1.1772687435150146,0.3897205293178558,1.645622491836548,-0.2370087206363678,#
-2.337787628173828,-10.423135757446287,-0.638883650302887,0.5375455617904663,1.5991979837417605,-0.1612636744976043,#
-3.148954391479492,-10.657631874084473,-0.7130610942840576,0.9553651213645936,1.8496454954147337,-0.2260134816169738,#
-3.148954391479492,-10.657631874084473,-0.7130610942840576,1.2192511558532717,1.980366826057434,-0.3042019307613373,#
-4.02472734451294,-10.95912742614746,-1.2227323055267334,1.9498244524002075,1.83132004737854,-0.3481829464435577,#
-3.0269205570220947,-11.088340759277344,-0.7250252366065979,2.785463571548462,1.6028631925582886,-0.2687727808952331,#
-1.7515461444854736,-10.913663864135742,0.1986042857170105,3.195952653884888,1.580872654914856,-0.2480039745569229,#
-2.328216552734375,-10.382457733154297,0.5575276613235474,3.578343152999878,1.8801878690719604,-0.2761029601097107,#
-2.328216552734375,-10.382457733154297,0.5575276613235474,3.2961316108703613,2.087875843048096,-0.2528907656669616,#
-3.1585259437561035,-8.401200294494629,0.3230310678482055,2.163620948791504,2.097649574279785,-0.1881409436464309,#
-2.517249345779419,-7.664210796356201,0.8781659603118896,0.6914790868759155,1.9815884828567505,-0.1417165547609329,#
-1.3998013734817505,-8.635696411132812,1.765903115272522,-0.0158820282667875,1.9583762884140012,-0.1368297785520553,#
-2.179861307144165,-10.6504545211792,1.0887343883514404,-0.6303943395614624,2.2295923233032227,-0.1942494213581085,#
-3.620340585708618,-12.088539123535156,0.2033899277448654,-0.3713951408863067,2.685284376144409,-0.0818535313010215,#
-3.620340585708618,-12.088539123535156,0.2033899277448654,0.0012216945178806,2.754921197891236,-0.0158820282667875,#
-3.0245277881622314,-12.571890830993652,-0.0071784676983952,0.8234220743179321,2.7524778842926025,0.1502684205770492,#
-1.7922240495681765,-10.944771766662598,0.0478564500808715,1.573542594909668,3.020028591156006,0.2309002727270126,#
-2.3497519493103027,-10.126425743103027,-0.1698903888463974,1.81177282333374,3.184957504272461,0.2211267054080963,#
-2.6392831802368164,-8.98265552520752,-0.6675975918769836,1.7775654792785645,3.205726385116577,0.2260134816169738,#
-2.6392831802368164,-8.98265552520752,-0.6675975918769836,1.6321837902069092,3.098217248916626,0.2455605864524841,#
-2.026720762252808,-9.198010444641112,-0.5958128571510315,1.1459494829177856,3.022472381591797,0.1881409436464309,#
-2.282752752304077,-9.681360244750977,-0.6005984544754028,0.6035171151161194,2.935731887817383,0.0158820282667875,#
-2.9790639877319336,-9.236295700073242,-1.098305583000183,0.42270627617836,2.8575432300567627,-0.0537545569241046,#
-3.177668571472168,-8.819944381713867,-0.784845769405365,0.2137965410947799,2.62297797203064,-0.0916270837187767,#
-3.177668571472168,-8.819944381713867,-0.784845769405365,0.3799469769001007,2.3309929370880127,-0.2663294076919555,#
-3.579662799835205,-10.66481113433838,-0.318245381116867,0.5094466209411621,2.1196398735046387,-0.3359659910202026,#
-3.35713005065918,-10.325029373168944,-1.8759729862213133,0.8845068216323853,1.878966212272644,-0.1441599577665329,#
-3.146562099456787,-9.975677490234377,-1.1748759746551514,1.2094775438308716,1.8459802865982056,-0.0342074446380138,#
-3.8979082107543945,-10.97348403930664,-0.236889436841011,1.5759859085083008,1.6798299551010132,-0.1453816443681717,#
-4.108476161956787,-10.753345489501951,-0.0837487876415252,1.8496454954147337,1.3304253816604614,-0.2333436459302902,#
-4.108476161956787,-10.753345489501951,-0.0837487876415252,1.7690136432647705,1.1264023780822754,-0.2370087206363678,#
-4.089334011077881,-9.025726318359377,-0.5383850932121277,1.4770286083221436,0.84541255235672,-0.3860554695129394,#
-4.73300313949585,-8.767301559448242,-1.2825528383255005,1.119072198867798,0.726908266544342,-0.445918470621109,#
-4.642076015472412,-9.834501266479492,-1.3543376922607422,0.9578084945678712,0.6853706240653992,-0.4593571126461029,#
-4.41475772857666,-9.820144653320312,-0.6699903011322021,0.5424323678016663,0.5961868762969971,-0.5216635465621948,#
-4.41475772857666,-9.820144653320312,-0.6699903011322021,0.3701734542846679,0.5729747414588928,-0.5387672781944275,#
-4.6061835289001465,-9.367900848388672,-0.662811815738678,0.0659715011715889,0.5302154421806335,-0.5131116509437561,#
-4.914857387542725,-9.401400566101074,-0.916451096534729,-0.1612636744976043,0.5008947253227234,-0.4337015450000763,#
-4.917250633239746,-9.731609344482422,-0.7465606331825256,-0.2467822879552841,0.4789042472839355,-0.4129327237606048,#
-5.003392219543457,-9.42772102355957,-0.5862415432929993,-0.3371876776218414,0.445918470621109,-0.365286648273468,#
-5.008177757263184,-9.40379238128662,-0.7824530005455017,-0.3579564988613128,0.3970507085323334,-0.3078669905662536,#
-5.008177757263184,-9.40379238128662,-0.7824530005455017,-0.3799469769001007,0.3848337531089782,-0.256555825471878,#
-4.922036170959473,-9.329615592956545,-0.787238597869873,-0.3347443044185638,0.3860554695129394,-0.1563768982887268,#
-4.8813581466674805,-9.566505432128906,-0.6699903011322021,-0.1930277347564697,0.3726168274879455,-0.0769667476415634,#
-4.5391845703125,-9.516255378723145,-0.229710966348648,-0.1087308079004287,0.3445178270339966,-0.0488677769899368,#
-4.292723655700684,-9.42054271697998,-0.3110669553279876,0.0720799788832664,0.3261924386024475,0.0195471122860908,#
-4.292723655700684,-9.42054271697998,-0.3110669553279876,0.1111741960048675,0.3127537965774536,0.0586413368582725,#
-4.149154186248779,-9.499505043029783,-0.114855483174324,0.1380514800548553,0.2577775418758392,0.0867403075098991,#
-3.783052444458008,-9.324830055236816,0.1363908797502517,0.1185043603181839,0.1954711079597473,0.1123958900570869,#
-3.759124279022217,-9.626325607299805,-0.0382851622998714,0.0940704718232154,0.155155211687088,0.1111741960048675,#
-3.5844480991363525,-9.609575271606444,0.0430708117783069,0.0244338884949684,0.0855186134576797,0.130721315741539,#
-3.524627923965454,-9.657432556152344,0.5431707501411438,0.1099525094032287,0.0146603342145681,0.123391143977642,#
-3.524627923965454,-9.657432556152344,0.5431707501411438,0.200357899069786,-0.0342074446380138,0.1062874197959899,#
-3.32602334022522,-9.81535816192627,0.6771688461303711,0.411711037158966,-0.0488677769899368,0.1331647038459777,#
-3.3475589752197266,-9.67657470703125,0.3278167247772217,0.4850127100944519,0.0439810007810592,0.1918060332536697,#
-3.548555850982666,-9.705288887023926,0.9954141974449158,0.6438329815864563,0.0610847249627113,0.2052446752786636,#
-3.4815566539764404,-9.434900283813477,1.6247265338897705,0.7782194018363953,0.069636583328247,0.1966928243637085,#
-3.4815566539764404,-9.434900283813477,1.6247265338897705,0.767224133014679,0.0659715011715889,0.1966928243637085,#
-3.4815566539764404,-9.19561767578125,1.2083754539489746,0.5815265774726868,0.1014006435871124,0.1808107793331146,#
-3.943371772766113,-9.540184020996094,0.4953142702579498,0.282211422920227,0.1014006435871124,0.1698155403137207,#
-4.02472734451294,-9.164510726928713,1.7132610082626345,0.2321219593286514,0.0904053896665573,0.1136175915598869,#
-3.91705060005188,-8.7505521774292,2.3018953800201416,0.2712161839008331,0.1111741960048675,0.1014006435871124,#
-3.91705060005188,-8.7505521774292,2.3018953800201416,0.0305423624813556,0.0879620015621185,0.1087308079004287,#
-4.118047714233398,-9.300901412963867,1.6031911373138428,-0.1209477484226226,0.0733016654849052,0.1172826737165451,#
-4.350151538848877,-9.757929801940918,0.9044869542121888,-0.1087308079004287,0.0806318372488021,0.1575985848903656,#
-4.23529577255249,-9.119047164916992,1.584048628807068,-0.0586413368582725,0.0720799788832664,0.1637070626020431,#
-3.976871252059937,-9.140583038330078,1.8855443000793457,-0.0195471122860908,0.1026223376393318,0.1649287492036819,#
-4.005585193634033,-9.535398483276367,1.284945726394653,-0.0952921733260154,0.0720799788832664,0.175924003124237,#
-4.005585193634033,-9.535398483276367,1.284945726394653,-0.1221694499254226,0.0549762547016143,0.1954711079597473,#
-4.122833251953125,-9.588040351867676,0.8159525394439697,-0.1099525094032287,0.0806318372488021,0.2345653474330902,#
-4.043870449066162,-9.31047248840332,1.191625714302063,0.0537545569241046,0.1038440242409706,0.2235700935125351,#
-4.225724697113037,-9.363115310668944,1.9334007501602173,0.1062874197959899,0.1270562261343002,0.2137965410947799,#
-4.113262176513672,-9.176474571228027,1.5984054803848269,0.0818535313010215,0.1160609796643257,0.2284568697214126,#
-4.113262176513672,-9.176474571228027,1.5984054803848269,0.0867403075098991,0.0561979450285434,0.2174616158008575,#
-4.455435752868652,-9.487542152404783,0.794417142868042,0.0415376126766204,0.0842969194054603,0.2724378705024719,#
-4.780859470367432,-8.855835914611816,1.6941183805465698,0.2980934381484985,0.1331647038459777,0.200357899069786,#
-4.78803825378418,-8.73619556427002,2.1200408935546875,0.4019374847412109,0.1710372269153595,0.2028012871742248,#
-5.091926097869873,-8.769694328308105,0.9930213689804076,0.2712161839008331,0.2064663618803024,0.2577775418758392,#
-5.572883605957031,-8.559126853942871,1.6175479888916016,0.123391143977642,0.2528907656669616,0.261442631483078,#
-5.572883605957031,-8.559126853942871,1.6175479888916016,0.1673721522092819,0.3286358118057251,0.2370087206363678,#
-6.147161483764648,-8.0350980758667,2.1200408935546875,0.2748812437057495,0.5509842038154602,0.2858764827251434,#
-6.369694232940674,-7.3675007820129395,0.7537391781806946,0.282211422920227,0.7159129977226257,0.2651077210903168,#
-6.458228588104248,-7.817351341247559,-0.2943171858787536,0.2223483920097351,0.8429691791534424,0.2272351831197738,#
-6.195017814636231,-7.948956489562988,-0.7585247755050659,-0.1050657257437706,1.180156946182251,0.1563768982887268,#
-6.195017814636231,-7.948956489562988,-0.7585247755050659,-0.3555130958557129,1.347529053688049,0.1209477484226226,#
-6.072984218597412,-6.7692952156066895,-1.777867317199707,-1.0030112266540527,1.502684235572815,0.1050657257437706,#
-5.893522262573242,-7.527820110321045,-5.213961124420166,-1.1593880653381348,1.593089580535889,-0.1734806150197982,#
-4.742574691772461,-8.767301559448242,-5.857630252838135,-0.8906152844429016,1.6236319541931152,-0.2761029601097107,left
-3.8356947898864746,-10.63370418548584,-8.051848411560059,-0.7525637745857239,1.4073920249938965,-0.3017585575580597,left
-3.4025940895080566,-13.42852020263672,-11.145767211914062,-1.3463072776794434,0.8405258059501648,-0.3200839459896087,left
-3.4025940895080566,-13.42852020263672,-11.145767211914062,-1.6700563430786133,0.5155550837516785,-0.2944283783435821,left
-2.792424201965332,-13.249059677124023,-13.320843696594238,-1.9974703788757324,-0.2993151545524597,-0.2028012871742248,left
-1.8233308792114256,-13.72523021697998,-13.41416358947754,-2.0634419918060303,-1.47825026512146,-0.1075091138482093,left
-0.0669990330934524,-14.73500156402588,-13.2777738571167,-1.8801878690719604,-2.2063801288604736,-0.0452026948332786,left
2.1990041732788086,-14.545969009399414,-11.191231727600098,-1.4122787714004517,-3.798248291015625,0.1136175915598869,left
2.1990041732788086,-14.545969009399414,-11.191231727600098,-1.5772075653076172,-4.642438888549805,0.1148392781615257,left
3.352344274520874,-15.87398624420166,-8.044669151306152,-2.687727928161621,-6.390684127807617,0.1649287492036819,left
3.972085475921631,-14.93599796295166,-4.07258415222168,-4.550811767578125,-7.90436315536499,-0.1575985848903656,left
5.7547383308410645,-13.864013671875,-7.439285278320312,-5.0553717613220215,-8.568964958190918,-0.3750602006912231,left
7.53021240234375,-12.983454704284668,-8.207381248474121,-4.539816379547119,-9.178589820861816,-0.6743753552436829,left
7.53021240234375,-12.983454704284668,-8.207381248474121,-2.930845260620117,-9.350850105285645,-0.7024743556976318,left
9.63828945159912,-7.982456684112549,-1.7802598476409912,-1.8239898681640625,-9.969027519226074,-1.016449809074402,left
9.934999465942385,-9.468399047851562,2.998206615447998,-1.3511940240859983,-11.29945182800293,-0.6548282504081726,left
10.77488136291504,-12.550354957580566,4.800002098083496,-2.1013145446777344,-11.536460876464844,-0.1429382413625717,left
11.265408515930176,-11.87557888031006,1.7132610082626345,-4.515382766723633,-9.622065544128418,0.4385882914066314,left
11.609975814819336,-9.190832138061523,10.380064964294434,-3.5710129737854004,-5.412106513977051,-1.4953540563583374,left
11.609975814819336,-9.190832138061523,10.380064964294434,-2.3871910572052,-4.064577579498291,-2.5411245822906494,left
6.845865249633789,-8.410772323608398,11.645866394042969,-1.4159438610076904,-3.3596599102020264,-0.7660024166107178,left
5.871986389160156,-11.576476097106934,11.416156768798828,-1.347529053688049,-2.7292654514312744,0.2638860046863556,left
5.37906551361084,-12.366107940673828,10.107282638549805,-1.5283397436141968,-2.175837755203247,0.4801259338855743,left
3.5437703132629395,-11.947362899780272,7.168896198272705,-1.5747642517089844,-0.8173136115074158,0.6413896083831787,left
3.5437703132629395,-11.947362899780272,7.168896198272705,-1.392731785774231,-0.1954711079597473,0.6132906079292297,left
1.4069796800613403,-12.282358169555664,4.570291519165039,-0.7806627750396729,0.6377245187759399,0.5216635465621948,left
-0.1938186287879943,-12.454641342163086,3.122633695602417,-0.5399889945983887,1.1850436925888062,0.4202629029750824,left
-1.9716858863830569,-11.8468656539917,1.3375877141952517,-0.4373666048049927,1.510014295578003,0.342074453830719,#
-3.029313325881958,-12.122039794921877,0.6293123364448547,0.0561979450285434,2.0671072006225586,0.1698155403137207,#
-3.335594892501831,-11.164910316467283,0.3134597539901733,0.860072910785675,2.3823041915893555,0.1453816443681717,#
-3.335594892501831,-11.164910316467283,0.3134597539901733,1.200925588607788,2.473931312561035,0.123391143977642,#
-3.608376264572144,-9.45164966583252,-0.2321037948131561,1.2937743663787842,2.552119731903076,0.0635281130671501,#
-3.828516006469727,-7.951349258422852,-0.5862415432929993,0.9248227477073668,2.4091813564300537,-0.0525328628718853,#
-3.8668015003204346,-8.250452041625977,-0.4785645008087158,0.684148907661438,2.279681921005249,-0.1099525094032287,#
-3.0269205570220947,-9.456435203552246,-0.0526420958340168,0.3506263196468353,1.91317355632782,-0.0610847249627113,#
-3.0269205570220947,-9.456435203552246,-0.0526420958340168,0.2858764827251434,1.69082510471344,0.0158820282667875,#
-2.196611166000366,-9.96131992340088,-0.3708875179290771,0.3958290219306946,1.6382923126220703,0.1209477484226226,#
-2.244467735290528,-9.731609344482422,-1.497907042503357,0.785549521446228,1.610193371772766,0.2260134816169738,#
-1.964507341384888,-9.509077072143556,-1.6247265338897705,1.016449809074402,1.5649906396865845,0.2980934381484985,#
-1.7706886529922483,-9.391828536987305,-1.093519926071167,1.3915101289749146,1.4892456531524658,0.3726168274879455,#
-1.7180466651916504,-8.786444664001465,-0.7465606331825256,1.5649906396865845,1.502684235572815,0.3494046330451965,#
-1.7180466651916504,-8.786444664001465,-0.7465606331825256,1.4318259954452517,1.549108624458313,0.3310791850090027,#
-2.251646041870117,-7.551748275756836,-0.6604190468788147,1.0250016450881958,1.7311410903930664,0.1747023165225982,#
-2.9048867225646973,-7.405786037445068,-1.325623631477356,0.5644228458404541,1.6700563430786133,0.0378725305199623,#
-2.5938196182250977,-7.769494533538818,-1.2873386144638062,0.3616215586662292,1.5674339532852173,0.0329857505857944,#
-1.964507341384888,-8.279166221618652,-0.9212367534637452,0.1575985848903656,1.4660333395004272,0.0219905003905296,#
-1.964507341384888,-8.279166221618652,-0.9212367534637452,0.1038440242409706,1.582094430923462,-0.0195471122860908,#
-2.861815929412842,-8.700303077697754,-1.3375877141952517,0.0952921733260154,1.91317355632782,-0.21135313808918,#
-3.500699520111084,-8.819944381713867,-1.758724570274353,0.2785463333129883,1.8325417041778564,-0.31641885638237,#
-2.720639228820801,-8.95394229888916,-1.6223337650299072,0.3921639025211334,1.714037299156189,-0.3176405727863312,#
-2.2157537937164307,-9.164510726928713,-1.191625714302063,0.7159129977226257,1.6810516119003296,-0.3457395434379577,#
-2.2157537937164307,-9.164510726928713,-1.191625714302063,1.0763128995895386,1.9583762884140012,-0.4740174412727356,#
-2.833101987838745,-9.346364974975586,-1.7874385118484497,1.2363548278808594,2.017017602920532,-0.5143333673477173,#
-2.935993194580078,-9.044869422912598,-1.6869399547576904,1.582094430923462,1.9571545124053955,-0.5632011890411377,#
-2.431107759475708,-8.662017822265625,-1.428515076637268,1.72014582157135,1.919282078742981,-0.6071821451187134,#
-2.3066811561584477,-8.803194999694824,-0.7106683850288391,1.8997348546981807,1.9498244524002075,-0.7598939538002014,#
-3.091526985168457,-9.1716890335083,-0.4378865361213684,1.982810139656067,2.1196398735046387,-1.031110167503357,#
-3.091526985168457,-9.1716890335083,-0.4378865361213684,2.0011355876922607,2.1477389335632324,-1.1764918565750122,#
-3.4719858169555664,-9.219545364379885,-0.4354937374591827,2.028012752532959,1.9473810195922847,-1.3194299936294556,#
-2.768495798110962,-9.044869422912598,-0.4618147313594818,1.9205037355422971,1.7042638063430786,-1.3719629049301147,#
-1.9956141710281368,-8.934800148010254,-0.2632104754447937,1.810551166534424,1.6248536109924316,-1.4428211450576782,#
-1.7012970447540283,-9.473184585571287,0.1435693651437759,1.5430002212524414,1.5002408027648926,-1.580872654914856,#
-1.7012970447540283,-9.473184585571287,0.1435693651437759,1.3621894121170044,1.4391560554504397,-1.612636685371399,#
-1.7156537771224976,-10.030712127685549,0.8015955686569214,1.0005677938461304,1.385401487350464,-1.640735745429993,#
-2.069791555404663,-10.669595718383787,1.0408778190612793,0.601073682308197,1.3169866800308228,-1.6883817911148071,#
-1.856830358505249,-11.088340759277344,1.8592231273651123,0.3542913794517517,1.2155860662460327,-1.6883817911148071,#
-1.2251251935958862,-11.564510345458984,1.66301167011261,-0.0342074446380138,1.0518789291381836,-1.6236319541931152,#
-1.0887343883514404,-11.95932674407959,1.1413763761520386,-0.282211422920227,1.067760944366455,-1.469698429107666,#
-1.0887343883514404,-11.95932674407959,1.1413763761520386,-0.3665083348751068,1.132510781288147,-1.3988401889801023,#
-1.758724570274353,-12.308679580688477,0.3756731450557709,-0.6365028619766235,1.326760172843933,-1.2302463054656982,#
-2.1750757694244385,-12.315858840942385,0.7154539823532104,-0.999346137046814,1.2265812158584597,-1.0750911235809326,#
-1.9286150932312007,-12.5264253616333,1.0169496536254885,-1.119072198867798,1.178935170173645,-0.9822423458099364,#
-1.7132610082626345,-12.351749420166016,0.4761717021465301,-1.1166287660598757,1.1593880653381348,-0.7476770281791687,#
-1.7132610082626345,-12.351749420166016,0.4761717021465301,-1.054322361946106,1.1581664085388184,-0.6181774139404297,#
-1.9094725847244265,-11.791830062866213,-0.0885344371199607,-0.864959716796875,1.1166287660598757,-0.3909422159194946,#
-2.0171494483947754,-11.47836971282959,-0.1459621787071228,-0.6413896083831787,0.999346137046814,-0.2076880484819412,#
-1.7563319206237793,-11.45683479309082,0.2943171858787536,-0.4789042472839355,0.9407047629356384,-0.1392731666564941,#
-1.5170495510101318,-11.586047172546388,0.4019941985607147,-0.0830752253532409,0.8466342687606812,-0.0513111688196659,#
-1.2538390159606934,-11.25344467163086,0.5240281224250793,0.287098228931427,0.7977665066719055,0.0244338884949684,#
-1.2538390159606934,-11.25344467163086,0.5240281224250793,0.3494046330451965,0.7769976854324341,0.0684148892760276,#
-0.8542376756668091,-10.8370943069458,0.3349951505661011,0.0855186134576797,0.7941014170646667,0.2064663618803024,#
-0.763310432434082,-10.54516887664795,0.3756731450557709,-0.4153760969638824,0.8417474627494812,0.3310791850090027,#
-0.8231310248374939,-11.174481391906738,0.8494520783424377,-0.6707102656364441,0.8490777015686035,0.3750602006912231,#
-0.9116654396057128,-11.542977333068848,0.6843472719192505,-0.905275583267212,0.8576295375823975,0.4495835602283478,#
-0.9116654396057128,-11.542977333068848,0.6843472719192505,-0.8124268054962158,0.8527427315711975,0.4935645759105682,#
-1.00259268283844,-11.748759269714355,0.6173481941223145,-0.4092676639556885,0.8283088207244873,0.5754181146621704,#
-1.34476637840271,-11.399406433105469,0.3852444589138031,0.1185043603181839,0.8466342687606812,0.6817055344581604,#
-1.641476273536682,-11.162517547607422,0.3014956414699554,0.3384093642234802,0.8759549260139465,0.7464553117752075,#
-1.65583336353302,-10.89452075958252,0.7369893789291382,0.5473191142082214,0.8893935680389404,0.8490777015686035,#
-1.4572290182113647,-10.992627143859863,1.0552347898483276,0.6255075931549072,0.896723747253418,0.8796200752258301,#
-1.4572290182113647,-10.992627143859863,1.0552347898483276,0.634059488773346,0.919935941696167,0.8893935680389404,#
-1.4548362493515017,-10.925628662109377,0.607776939868927,0.6096255779266357,1.0042328834533691,0.9345962405204772,#
-1.6103696823120115,-10.346564292907717,0.3062812983989715,0.5668662190437317,1.0323318243026731,0.96147358417511,#
-1.6295121908187866,-9.994820594787598,0.2895315289497375,0.4043808877468109,1.099524974822998,1.0152281522750854,#
-1.727617859840393,-10.380064964294434,0.5168496966362,0.2858764827251434,1.0897514820098877,1.012784719467163,#
-1.727617859840393,-10.380064964294434,0.5168496966362,0.2944283783435821,1.1581664085388184,1.0335536003112793,#
-1.998006820678711,-9.9469633102417,-0.318245381116867,0.3860554695129394,1.2106993198394775,1.0518789291381836,#
-2.392822742462158,-9.42772102355957,-0.0909272655844688,0.5216635465621948,1.211920976638794,0.9773555994033812,#
-2.3784656524658203,-9.080761909484863,-1.0001999139785769,0.4898994863033294,1.2705622911453247,1.0066763162612915,#
-2.3976082801818848,-8.609375953674316,-0.6939185857772827,0.2345653474330902,1.1654964685440063,0.9883508682250975,#
-2.3976082801818848,-8.609375953674316,-0.6939185857772827,0.1368297785520553,1.148392915725708,0.9150491952896118,#
-2.4741785526275635,-8.542377471923828,0.7130610942840576,0.2137965410947799,1.2852225303649902,0.7892146706581116,#
-2.720639228820801,-8.97787094116211,0.2009970992803573,0.0830752253532409,1.1618314981460571,0.8112051486968994,#
-2.2133607864379883,-9.408578872680664,-1.1748759746551514,-0.0952921733260154,1.1264023780822754,0.836860716342926,#
-2.2923240661621094,-9.075976371765137,-1.1700903177261353,-0.365286648273468,0.9834640026092528,0.7806627750396729,#
-2.502892255783081,-9.119047164916992,-1.636690616607666,-0.1380514800548553,0.9089407324790956,0.6426112651824951,#
-2.502892255783081,-9.119047164916992,-1.636690616607666,0.0219905003905296,0.8393040895462036,0.6279509663581848,#
-2.522034883499145,-8.95394229888916,-1.490728497505188,0.1136175915598869,0.6157339811325073,0.5656445622444153,#
-2.67278265953064,-8.925228118896484,-0.638883650302887,0.3738385140895843,0.5253286361694336,0.4385882914066314,#
-2.8737800121307373,-8.717053413391113,-0.5910272002220154,0.5351021885871887,0.4666872918605804,0.4190412163734436,#
-2.912065029144287,-8.879764556884766,-1.4213367700576782,0.5888567566871643,0.2919849753379822,0.4068242609500885,#
-2.912065029144287,-8.879764556884766,-1.4213367700576782,0.4337015450000763,0.2480039745569229,0.3823903799057007,#
-3.084348201751709,-8.561518669128418,-0.8015955686569214,0.1856975704431533,0.1966928243637085,0.3188622593879699,#
-3.2207393646240234,-8.60459041595459,-0.430708110332489,-0.0855186134576797,0.1417165547609329,0.2809897363185882,#
-3.376272678375244,-8.989834785461426,-0.6891329884529114,-0.1905843466520309,0.1111741960048675,0.2406738102436065,#
-3.634697675704956,-9.08554744720459,-1.098305583000183,-0.2675510942935943,0.0122169442474842,0.1588202863931656,#
-3.754338502883911,-8.925228118896484,-1.3902300596237185,-0.2712161839008331,-0.0354291386902332,0.0940704718232154,#
-3.754338502883911,-8.925228118896484,-1.3902300596237185,-0.2907632887363434,-0.0500894747674465,0.0647498071193695,#
-3.646661758422852,-8.997013092041016,-0.8327022790908813,-0.4190412163734436,-0.0989572554826736,0.0598630309104919,#
-4.1347975730896,-9.671788215637209,-1.2059825658798218,-0.574196457862854,-0.175924003124237,0.0342074446380138,#
-4.826323509216309,-9.812965393066406,-2.3880369663238525,-0.5473191142082214,-0.1722589135169983,0.0500894747674465,#
-4.510470867156982,-9.521041870117188,-2.8809585571289062,-0.5876350998878479,-0.21135313808918,0.0818535313010215,#
-4.510470867156982,-9.521041870117188,-2.8809585571289062,-0.6365028619766235,-0.200357899069786,0.0867403075098991,#
-4.862215518951416,-9.91107177734375,-4.168296813964844,-0.6731536388397217,-0.2406738102436065,0.1075091138482093,#
-5.386244297027588,-10.157532691955566,-5.584848403930664,-0.7183563709259033,-0.3469612300395965,0.2675510942935943,left
-4.814359188079834,-9.896714210510254,-7.322037220001221,-0.8527427315711975,-0.4508052766323089,0.3359659910202026,left
-4.644468784332275,-9.93978500366211,-6.984649658203125,-1.060430884361267,-0.730573296546936,0.3017585575580597,left
-4.711467742919922,-10.358529090881348,-6.451050281524658,-1.021336555480957,-1.2595670223236084,0.3176405727863312,left
-4.711467742919922,-10.358529090881348,-6.451050281524658,-0.9370396137237548,-1.5686556100845337,0.3261924386024475,left
-4.067798614501953,-10.796415328979492,-7.456035614013672,-0.998124361038208,-2.0671072006225586,0.365286648273468,left
-3.077169895172119,-10.40877914428711,-6.917649745941162,-1.0763128995895386,-2.2613565921783447,0.3555130958557129,left
-2.4191436767578125,-10.521241188049316,-6.857830047607422,-1.3756279945373535,-2.688949584960937,0.3054236173629761,left
-2.888136863708496,-10.506884574890137,-6.702296257019043,-1.5295615196228027,-3.000481605529785,0.200357899069786,left
-2.888136863708496,-10.506884574890137,-6.702296257019043,-1.5161229372024536,-3.111655712127685,0.1612636744976043,left
-2.416750907897949,-10.37767219543457,-5.994020462036133,-1.4868022203445437,-3.326673984527588,0.0561979450285434,left
-1.3399806022644043,-11.212766647338867,-4.02472734451294,-1.5136795043945312,-3.680965423583984,-0.0171037223190069,left
-0.851844847202301,-11.83489990234375,-3.869194030761719,-1.6138584613800049,-3.9130876064300537,-0.0452026948332786,left
-0.3158525824546814,-11.691330909729004,-4.938785552978516,-2.060998678207397,-4.242944717407227,-0.0965138673782348,left
-0.3158525824546814,-11.691330909729004,-4.938785552978516,-2.4885916709899902,-4.299142837524414,-0.1930277347564697,left
0.1651047617197036,-11.337193489074709,-3.6562328338623047,-3.0065901279449463,-4.335793972015381,-0.5583143830299377,left
1.2179466485977173,-11.24626636505127,-1.6031911373138428,-3.2851364612579346,-4.749948024749756,-0.864959716796875,left
2.770888566970825,-11.832507133483888,-2.076970100402832,-3.428074598312378,-5.034603118896484,-0.9969027042388916,left
2.445464611053467,-9.722038269042969,-2.6536402702331543,-3.140976428985596,-5.612464427947998,-1.281557559967041,left
4.431507587432861,-8.894121170043945,-3.1250264644622803,-2.225927352905273,-5.932548522949219,-1.5185662508010864,left
4.431507587432861,-8.894121170043945,-3.1250264644622803,-1.9571545124053955,-5.969199180603027,-1.6224102973937988,left
6.501298904418945,-10.329815864562988,1.950150489807129,-1.3011046648025513,-6.0388360023498535,-1.930277228355408,left
6.245267391204834,-11.085947036743164,2.864208698272705,-0.7782194018363953,-5.823817729949951,-1.7971125841140747,left
6.398407459259033,-9.87278652191162,6.245267391204834,-0.785549521446228,-5.6161298751831055,-1.7910041809082031,left
6.290730953216553,-12.75613784790039,4.187439441680908,-1.1997039318084717,-5.348578453063965,-1.878966212272644,left
6.290730953216553,-12.75613784790039,4.187439441680908,-1.4770286083221436,-4.988178730010986,-1.6993770599365234,left
5.974878311157227,-13.947763442993164,3.153740167617798,-1.9669280052185056,-3.4073057174682617,-1.1997039318084717,left
3.4743783473968506,-9.820144653320312,7.590033531188965,-1.3023263216018677,-2.450719118118286,-0.8222004175186157,left
3.627518892288208,-13.35434341430664,5.960521221160889,-0.8771765828132629,-2.2613565921783447,-0.5399889945983887,left
2.636890411376953,-11.94497013092041,6.606583118438721,0.0158820282667875,-1.8728575706481931,-0.0354291386902332,left
2.108076810836792,-9.619147300720217,7.53021240234375,0.3274141252040863,-1.5527737140655518,0.2895416021347046,left
2.108076810836792,-9.619147300720217,7.53021240234375,0.0647498071193695,-1.326760172843933,0.3213056325912475,left
1.4668002128601074,-9.60478973388672,5.584848403930664,-0.95658677816391,-0.9248227477073668,0.3530696928501129,left
0.5096712112426758,-9.20279598236084,4.292723655700684,-1.6700563430786133,-0.4801259338855743,0.4471401870250702,left
-0.1651047617197036,-8.817551612854004,3.177668571472168,-1.767791986465454,-0.3029802441596985,0.4446967840194702,left
-1.0456634759902954,-9.245866775512695,2.7948169708251958,-1.3731845617294312,-0.0537545569241046,0.2785463333129883,left
-1.0456634759902954,-9.245866775512695,2.7948169708251958,-0.9736905097961426,0.0256555844098329,0.2028012871742248,left
-1.0217353105545044,-9.805787086486816,1.2729815244674685,-0.130721315741539,0.1160609796643257,0.2247917801141739,left
-0.8973084688186646,-9.34157943725586,0.4331009089946747,0.3176405727863312,0.3347443044185638,0.2418954968452453,#
-1.2538390159606934,-8.707481384277344,-0.6747759580612183,0.4019374847412109,0.4984513521194458,0.2076880484819412,#
-1.1150553226470947,-9.11426067352295,-1.4213367700576782,0.4642439186573028,0.6817055344581604,0.1160609796643257,#
-0.1076770275831222,-9.087940216064451,-0.8685945868492126,0.5241069197654724,0.6560499668121338,0.0879620015621185,#
-0.1076770275831222,-9.087940216064451,-0.8685945868492126,0.6878139972686768,0.7635590434074402,0.0525328628718853,#
-0.8111668825149536,-9.133403778076172,-0.6245267391204834,1.220472812652588,1.4452645778656006,-0.1246128380298614,#
-2.242074966430664,-9.439685821533203,-1.3280165195465088,1.4269392490386963,1.6224102973937988,-0.1319430023431778,#
-1.06480610370636,-8.673982620239258,-1.0336993932724,1.525896430015564,1.4049487113952637,0.0305423624813556,#
-0.1196411252021789,-7.429713726043701,-0.3517449200153351,1.2705622911453247,1.2864443063735962,0.0842969194054603,#
-0.1196411252021789,-7.429713726043701,-0.3517449200153351,1.0750911235809326,1.5882028341293335,-0.0378725305199623,#
-1.9453648328781128,-7.838886737823486,-1.428515076637268,0.5766398310661316,2.115974903106689,-0.1747023165225982,#
-2.2468602657318115,-8.886943817138672,-1.5720844268798828,0.0830752253532409,1.7372496128082275,-0.0476460866630077,#
-2.2468602657318115,-8.896513938903809,-0.9547362923622132,-0.0830752253532409,1.5002408027648926,0.0207688063383102,#
0.4498506784439087,-8.240880966186523,-1.0169496536254885,-0.3591781854629516,1.6786081790924072,0.1075091138482093,#
0.4498506784439087,-8.240880966186523,-1.0169496536254885,-0.5241069197654724,2.100092887878418,0.0855186134576797,#
-1.9956141710281368,-8.62612533569336,-2.062613010406494,-0.8979454636573792,2.65229868888855,0.0097735561430454,#
-2.675175428390503,-9.724431037902832,-2.75174617767334,-1.2168077230453491,2.282125234603882,0.0720799788832664,#
-0.672383189201355,-10.05224895477295,-2.4670000076293945,-1.1215155124664309,2.03412127494812,0.1588202863931656,#
0.5240281224250793,-9.834501266479492,-2.0961124897003174,-0.7342383861541748,2.115974903106689,0.2064663618803024,#
-1.0839486122131348,-10.174281120300291,-3.091526985168457,-0.2272351831197738,2.765916347503662,0.1392731666564941,#
-1.0839486122131348,-10.174281120300291,-3.091526985168457,0.0085518611595034,3.020028591156006,0.0928487852215766,#
-1.9262222051620483,-10.85862922668457,-4.8191447257995605,0.2834331095218658,2.8477697372436523,0.1429382413625717,#
0.1124626696109771,-10.456634521484377,-4.591826438903809,0.2150182276964187,2.56067156791687,0.1820324808359146,#
1.2610174417495728,-9.96371364593506,-3.098705530166626,0.3408527672290802,2.666959047317505,0.0354291386902332,#
0.2177468687295913,-9.533005714416504,-2.421536445617676,0.6548282504081726,3.0530147552490234,-0.0708582773804664,#
0.2177468687295913,-9.533005714416504,-2.421536445617676,0.7782194018363953,3.1751840114593506,-0.031764056533575,#
-1.184447169303894,-9.097511291503906,-2.8666017055511475,0.8759549260139465,3.261924266815185,-0.2015795856714248,#
-1.794616937637329,-9.05683422088623,-3.5198421478271484,0.7220214009284973,3.1348679065704346,-0.5680879354476929,#
-1.093519926071167,-8.97787094116211,-3.6562328338623047,0.6731536388397217,3.064009666442871,-0.7525637745857239,#
-0.6891329884529114,-9.011369705200195,-3.538984537124634,0.6047387719154358,3.089665412902832,-1.0518789291381836,#
-0.8949156999588013,-8.96112060546875,-3.1657044887542725,0.5803048610687256,3.1605236530303955,-1.3035480976104736,#
-0.8949156999588013,-8.96112060546875,-3.1657044887542725,0.652384877204895,3.144641637802124,-1.4367127418518066,#
-1.1724830865859983,-8.621339797973633,-2.7038896083831787,0.9333745837211608,3.0065901279449463,-1.674943208694458,#
-1.210768222808838,-8.391629219055176,-2.778067111968994,1.225359559059143,2.806232213973999,-1.8985131978988647,#
-1.057627558708191,-8.226524353027344,-3.029313325881958,1.320651650428772,2.707274913787842,-2.0524466037750244,#
-0.6484549045562744,-8.073383331298828,-3.084348201751709,1.408613681793213,2.4751532077789307,-2.399407863616944,#
-0.6484549045562744,-8.073383331298828,-3.084348201751709,1.382958173751831,2.3383231163024902,-2.563115119934082,#
-0.2727817595005035,-7.190432548522949,-2.6967110633850098,1.414722204208374,2.080545663833618,-2.8966376781463623,#
-0.1028913781046867,-8.059026718139648,-3.366701364517212,1.5307831764221191,1.706707239151001,-3.083556890487671,#
1.4380863904953003,-9.875179290771484,-3.005385160446167,1.2229161262512207,1.3878449201583862,-3.0933306217193604,#
2.6153552532196045,-9.18126106262207,-2.266003131866455,0.8417474627494812,0.9639169573783876,-3.269254446029663,#
2.6153552532196045,-9.18126106262207,-2.266003131866455,1.155722975730896,0.8674030900001526,-3.474499225616455,#
2.244467735290528,-8.12841796875,-2.0003998279571533,1.2632319927215576,0.7427902817726135,-3.4525086879730225,#
2.0243279933929443,-7.767102241516113,-1.4859429597854614,1.1997039318084717,0.2980934381484985,-3.4073057174682617,#
3.677768468856812,-11.131410598754885,-1.7874385118484497,1.1679399013519287,0.0012216945178806,-3.4158577919006348,#
6.656832218170166,-11.471190452575684,-1.196411371231079,0.2675510942935943,-0.5937435030937195,-3.2326035499572754,#
8.370094299316406,-9.975677490234377,-1.7084753513336182,0.3151971697807312,-0.5949652194976807,-3.286358118057251,#
7.374679565429687,-8.96112060546875,-1.832902193069458,0.6230642199516296,-0.5094466209411621,-3.3804285526275635,#
6.812366485595703,-7.752745151519775,-1.6917256116867063,0.8588511943817139,-0.4043808877468109,-3.243598937988281,#
7.853243827819824,-8.73619556427002,-0.5335994362831116,0.8026533126831055,-0.577861487865448,-2.869760513305664,#
10.791629791259766,-11.408977508544922,0.1627119481563568,0.7550071477890015,-0.7598939538002014,-2.797680377960205,#
10.791629791259766,-11.408977508544922,0.1627119481563568,0.1050657257437706,-1.148392915725708,-2.604652643203736,#
12.20339584350586,-10.437491416931152,0.0167497582733631,-0.3982723951339721,-0.9480348825454712,-2.345653295516968,#
10.16231918334961,-9.162117958068848,-0.8374879360198975,-0.1942494213581085,-0.6927007436752319,-2.296785831451416,#
9.011369705200195,-8.135597229003906,-0.7393822073936462,0.0794101431965828,-0.3872771561145782,-1.837428450584412,#
9.164510726928713,-7.886743545532227,0.0622133873403072,0.128277912735939,-0.4361449182033539,-1.5002408027648926,#
9.12383270263672,-7.458428382873535,0.7226324081420898,0.1575985848903656,-0.6169556975364685,-1.0469921827316284,#
9.12383270263672,-7.458428382873535,0.7226324081420898,0.1502684205770492,-0.6707102656364441,-0.7879929542541504,#
8.659625053405762,-6.63769006729126,1.0719845294952393,0.1050657257437706,-0.6389462351799011,-0.6743753552436829,#
8.23848819732666,-6.195017814636231,1.210768222808838,-0.0146603342145681,-0.6218425035476685,-0.4874561131000519,#
8.673982620239258,-6.470191955566406,1.0456634759902954,-0.0390942245721817,-0.7085827589035034,-0.4019374847412109,#
9.765109062194824,-7.561319828033447,1.373480200767517,-0.0195471122860908,-0.786771297454834,-0.3946073353290558,#
9.765109062194824,-7.561319828033447,1.373480200767517,-0.0085518611595034,-0.911384105682373,-0.3371876776218414,#
11.059626579284668,-8.240880966186523,3.486342430114746,-0.007330167107284,-0.9284878373146056,-0.2443388998508453,#
10.8370943069458,-7.52303409576416,3.2279179096221924,0.8783983588218689,-0.9492565989494324,0.0122169442474842,#
9.556933403015137,-5.096712112426758,1.3471590280532837,1.58942449092865,-0.5399889945983887,-0.1404948681592941,#
9.571290969848633,-3.6921253204345694,0.3110669553279876,1.4868022203445437,-0.3738385140895843,0.0537545569241046,#
9.205188751220703,-4.098905563354492,0.48574298620224,0.6951441764831543,-0.0855186134576797,0.5900784730911255,#
9.205188751220703,-4.098905563354492,0.48574298620224,-0.2309002727270126,0.175924003124237,0.4654656052589416,#
8.482556343078613,-5.656632423400879,0.4642075896263122,-0.5399889945983887,0.3958290219306946,0.3921639025211334,#
8.276773452758789,-7.101897716522217,1.22033953666687,-1.115407109260559,0.5253286361694336,0.5754181146621704,#
8.283952713012695,-8.188239097595215,0.8662018179893494,-1.0298885107040403,0.5289937257766724,0.8050966858863831,#
8.700303077697754,-7.975277900695801,0.4067798554897308,-0.7635590434074402,0.546097457408905,0.8307521939277649,#
8.700303077697754,-7.975277900695801,0.4067798554897308,-0.2467822879552841,0.5057815313339233,0.8686248064041138,#
9.159724235534668,-8.532805442810059,0.1268195956945419,-0.0818535313010215,0.5241069197654724,0.9419264793395996,#
9.647860527038574,-9.482755661010742,1.804188132286072,-0.1197260618209838,0.652384877204895,1.1740483045578003,#
9.90389347076416,-10.717452049255373,2.400001049041748,-0.3261924386024475,0.7440119385719299,1.5442218780517578,#
10.200602531433104,-11.619546890258787,1.1940184831619265,-0.4104893505573272,0.7769976854324341,1.7604618072509766,#
10.200602531433104,-11.619546890258787,1.1940184831619265,-0.7843278050422668,0.8955020904541016,2.3236629962921143,#
10.454241752624512,-13.55294704437256,-0.1770688742399215,-1.087308049201965,1.0824213027954102,2.90396785736084,#
10.490135192871094,-15.151352882385254,0.1962114423513412,-1.035996913909912,1.2302463054656982,3.129981279373169,#
9.767501831054688,-14.44307804107666,1.284945726394653,-0.7843278050422668,1.5637688636779783,3.716394662857056,#
9.229117393493652,-13.014562606811523,0.0167497582733631,-0.4874561131000519,1.640735745429993,4.046252250671387,#
7.448856830596924,-11.107483863830566,0.028713870793581,0.0366508327424526,1.8569756746292116,4.4567413330078125,#
7.448856830596924,-11.107483863830566,0.028713870793581,0.2137965410947799,2.0842106342315674,4.600901126861572,#
6.795616626739502,-12.48574924468994,0.861416220664978,0.2467822879552841,2.144073724746704,4.760943412780762,#
6.16391134262085,-10.72702407836914,2.321038007736206,0.2162399291992187,2.434837102890014,5.03948974609375,#
4.043870449066162,-8.666803359985352,2.2468602657318115,0.4532486498355865,2.7378172874450684,5.040711402893066,#
2.026720762252808,-7.051648139953613,2.031506299972534,0.73912513256073,2.8502132892608643,4.94786262512207,#
2.026720762252808,-7.051648139953613,2.031506299972534,0.8979454636573792,2.4629359245300293,4.820806503295898,#
1.6295121908187866,-4.972285747528076,1.8903299570083616,0.9822423458099364,2.302894115447998,4.818362712860107,#
0.7896314859390259,-3.81655216217041,2.816352128982544,1.369519591331482,2.2980072498321533,4.591127872467041,#
-0.4522434771060943,-3.665804386138916,2.4023938179016118,2.0182392597198486,2.4983651638031006,4.075572967529297,#
-0.3637090623378753,-5.142175674438477,2.2995026111602783,2.192941665649414,2.494700193405152,3.8520028591156006,#
-0.1986042857170105,-4.302295207977295,2.5363922119140625,2.290677070617676,2.4226200580596924,3.387758731842041,#
-0.1986042857170105,-4.302295207977295,2.5363922119140625,1.8325417041778564,2.489813327789306,2.7964584827423096,#
-1.3974084854125977,-3.565305471420288,2.344966173171997,1.6639479398727417,2.4983651638031006,2.5069169998168945,#
-2.1343977451324463,-4.845465660095215,0.760917603969574,1.1044118404388428,2.4177334308624268,1.9583762884140012,#
-2.1200408935546875,-5.716453552246094,0.9834501147270204,0.0513111688196659,2.2674648761749268,1.4489295482635498,#
-2.3090739250183105,-5.601597785949707,1.37587308883667,-0.2516690790653229,2.2674648761749268,1.196038842201233,#
-2.3090739250183105,-5.601597785949707,1.37587308883667,-0.577861487865448,2.183168172836304,0.8002098798751831,#
-2.6081764698028564,-6.049055576324463,0.9499505758285522,-0.7354600429534912,2.080545663833618,0.660936713218689,#
-2.6536402702331543,-7.396214485168457,-0.8925228118896484,-1.1716049909591677,1.764126896858215,0.3970507085323334,#
-2.739781856536865,-8.01356315612793,-1.5122638940811155,-1.627297043800354,1.4648116827011108,0.1698155403137207,#
-3.1728827953338623,-7.420143127441406,-2.031506299972534,-1.761683464050293,1.3316470384597778,0.0940704718232154,#
-3.072384119033813,-7.714460372924805,-2.861815929412842,-1.7213674783706665,1.1080769300460815,-0.0598630309104919,#
-3.072384119033813,-7.714460372924805,-2.861815929412842,-1.4599249362945557,0.8747332096099854,-0.1160609796643257,#
-3.38823676109314,-8.142775535583496,-4.1347975730896,-1.2497934103012085,0.7476770281791687,-0.1343863904476165,left
-3.13938307762146,-8.379664421081543,-5.338387489318848,-0.8234220743179321,0.5570926666259766,-0.1270562261343002,left
-3.0556347370147705,-9.269794464111328,-7.211967468261719,-0.5412106513977051,0.411711037158966,-0.1930277347564697,left
-3.462414264678955,-10.250852584838867,-7.465606689453125,-0.730573296546936,0.2980934381484985,-0.2443388998508453,left
-3.462414264678955,-10.250852584838867,-7.465606689453125,-1.2058125734329224,-0.1221694499254226,-0.3787252902984619,left
-3.684947013854981,-10.25563907623291,-8.662017822265625,-1.5307831764221191,-0.3860554695129394,-0.3811686933040619,left
-3.5605196952819824,-10.54516887664795,-10.578668594360352,-1.9156169891357424,-1.0140063762664795,-0.4007157981395721,left
-3.201596736907959,-10.930414199829102,-11.46640682220459,-2.0548901557922363,-1.5979763269424438,-0.411711037158966,left
-2.63449764251709,-11.619546890258787,-10.815558433532717,-2.05366849899292,-1.9205037355422971,-0.4288147687911987,left
-2.63449764251709,-11.619546890258787,-10.815558433532717,-2.146517276763916,-2.7207136154174805,-0.4825693070888519,left
-1.5026925802230835,-12.796814918518066,-10.00439167022705,-2.117196559906006,-3.677300214767456,-0.546097457408905,left
-0.0454636327922344,-14.34736442565918,-7.862814903259277,-2.1257483959198,-4.137879371643066,-0.5851916074752808,left
0.413958340883255,-14.871392250061035,-7.018148422241211,-2.3480966091156006,-5.054150104522705,-0.6731536388397217,left
1.2873386144638062,-13.452449798583984,-6.805188179016113,-2.6364166736602783,-5.50739860534668,-0.7049177289009094,left
2.5052852630615234,-12.63888931274414,-3.8261232376098633,-3.980280637741089,-6.165892124176025,-0.6621583700180054,left
2.5052852630615234,-12.63888931274414,-3.8261232376098633,-5.3681254386901855,-6.709546089172363,-1.0469921827316284,left
3.8835511207580566,-11.892329216003418,0.3230310678482055,-5.432875633239746,-7.100488185882568,-1.2620103359222412,left
4.053441524505615,-12.562318801879885,3.5605196952819824,-4.588684558868408,-8.059518814086914,-1.7396929264068604,left
4.8574299812316895,-12.306286811828612,-4.9435715675354,-3.5856733322143555,-8.707016944885254,-1.9657063484191892,left
8.535198211669922,-10.700701713562012,0.861416220664978,-3.138533115386963,-8.936695098876953,-1.820324778556824,left
8.535198211669922,-10.700701713562012,0.861416220664978,-2.8331096172332764,-9.595189094543455,-1.822768211364746,left
11.92343521118164,-15.26620864868164,3.290131092071533,-2.618091106414795,-9.863961219787598,-2.102536201477051,left
10.86341381072998,-11.353943824768066,0.2560320198535919,-2.666959047317505,-9.031987190246582,-2.1770594120025635,left
8.322237014770508,-10.236495971679688,-0.9451649785041808,-2.129413604736328,-6.437108039855957,-1.4916889667510986,left
7.70249605178833,-16.438692092895508,6.120840072631836,-1.9498244524002075,-5.374233722686768,-1.1850436925888062,left
6.168696403503418,-14.565112113952637,9.91585636138916,-1.3084348440170288,-4.03892183303833,-0.3701734542846679,left
6.168696403503418,-14.565112113952637,9.91585636138916,-0.3188622593879699,-2.5618932247161865,0.0904053896665573,left
3.747160196304321,-9.978070259094238,8.970691680908203,0.0586413368582725,-1.8936264514923096,0.175924003124237,left
1.722832441329956,-9.054441452026367,6.733402729034424,-0.3775035738945007,-0.836860716342926,0.5192201733589172,left
0.1459621787071228,-10.286745071411133,4.840680122375488,-1.1679399013519287,-0.1392731666564941,0.6914790868759155,left
-1.3710873126983645,-11.076375007629396,2.53399920463562,-1.3670761585235596,0.129499614238739,0.7171346545219421,left
-1.3710873126983645,-11.076375007629396,2.53399920463562,-1.2534584999084473,0.7708892226219177,0.7330166697502136,left
-3.428915023803711,-11.038090705871582,1.643869161605835,-1.035996913909912,1.2424633502960205,0.712247908115387,left
-5.065605640411377,-9.678967475891112,1.4715858697891235,-0.0171037223190069,1.9950270652771,0.4202629029750824,left
-5.099104881286621,-7.247859954833984,1.368694543838501,0.6536065340042114,1.940050840377808,0.1539334952831268,left
-4.3070807456970215,-7.111469268798828,0.7992027401924133,0.7403469085693359,1.7177023887634275,0.1441599577665329,left
-3.5581274032592773,-8.968299865722656,-0.1435693651437759,0.4850127100944519,1.4208307266235352,0.0891837030649185,#
-3.5581274032592773,-8.968299865722656,-0.1435693651437759,0.0830752253532409,1.1838220357894895,0.069636583328247,#
-2.75174617767334,-9.87278652191162,-1.239482045173645,0.0855186134576797,1.0726476907730105,0.1014006435871124,#
-2.833101987838745,-9.379864692687988,-2.4191436767578125,0.3946073353290558,0.965138614177704,0.1087308079004287,#
-2.864208698272705,-8.9850492477417,-2.335394859313965,0.6022953391075134,1.0531005859375,0.1246128380298614,#
-2.368894338607788,-9.06401252746582,-1.636690616607666,0.5998519659042358,1.0298885107040403,0.1356080919504165,#
-2.368894338607788,-9.06401252746582,-1.636690616607666,0.4520269632339477,0.910162389278412,0.1514901220798492,#
-2.029113531112671,-8.82951545715332,-1.308874011039734,0.3603998720645904,0.8771765828132629,0.1905843466520309,#
-2.364108800888061,-8.918049812316895,-1.588834285736084,0.3005368411540985,0.9736905097961426,0.2602209150791168,#
-2.3330020904541016,-8.939584732055664,-1.7084753513336182,0.2834331095218658,1.0824213027954102,0.3029802441596985,#
-1.6773687601089478,-9.116654396057127,-1.1772687435150146,0.3506263196468353,1.0702043771743774,0.3200839459896087,#
-1.6773687601089478,-9.116654396057127,-1.1772687435150146,0.6621583700180054,0.9504783153533936,0.3323009014129638,#
-1.244267821311951,-9.332008361816406,-0.5120640397071838,1.1569446325302124,0.9480348825454712,0.3029802441596985,#
-1.5601203441619873,-9.329615592956545,-0.3397807776927948,1.437934398651123,1.0433270931243896,0.2687727808952331,#
-1.94297194480896,-8.9850492477417,-0.3038884699344635,2.048781633377075,1.2583452463150024,0.1380514800548553,#
-1.289731502532959,-7.649853706359863,0.0550349205732345,2.265021562576294,1.288887619972229,0.0733016654849052,#
-0.8087739944458008,-7.003791332244873,0.3493521213531494,2.318776130676269,1.132510781288147,0.0280989725142717,#
-0.8087739944458008,-7.003791332244873,0.3493521213531494,2.2149322032928467,1.1716049909591677,-0.1795890927314758,#
-1.4835500717163086,-7.697710037231445,0.1435693651437759,2.1880548000335693,1.327981948852539,-0.3237490355968475,#
-1.7994027137756348,-8.685946464538574,0.064606212079525,2.1330785751342773,1.640735745429993,-0.5961868762969971,#
-1.0887343883514404,-8.453842163085938,0.5910272002220154,2.1770594120025635,1.5967546701431274,-0.8539644479751587,#
-0.8973084688186646,-6.802794933319092,0.794417142868042,2.1856114864349365,1.5246747732162476,-0.9675819873809814,#
-0.8973084688186646,-6.802794933319092,0.794417142868042,1.9925836324691768,1.5613255500793457,-1.1654964685440063,#
-1.6965112686157229,-6.56829833984375,0.4618147313594818,1.7775654792785645,1.6786081790924072,-1.3157649040222168,#
-1.864008903503418,-7.501499176025391,0.3589234054088592,1.1386191844940186,1.83132004737854,-1.6346272230148315,#
-0.6819544434547424,-8.204988479614258,0.3038884699344635,0.5986303091049194,1.58942449092865,-1.886296272277832,#
0.4091726541519165,-8.350951194763184,0.3756731450557709,0.494786262512207,1.4916889667510986,-1.9950270652771,#
0.380458801984787,-8.389235496520996,0.1914258003234863,0.5155550837516785,1.461146593093872,-2.183168172836304,#
0.380458801984787,-8.389235496520996,0.1914258003234863,0.6780403852462769,1.6602827310562134,-2.4226200580596924,#
0.2799602448940277,-8.764908790588379,-0.2344966232776641,0.786771297454834,1.8019993305206297,-2.574110269546509,#
1.1940184831619265,-8.551947593688965,-0.1794617027044296,0.7354600429534912,1.786117434501648,-2.835552930831909,#
2.053041696548462,-8.410772323608398,-0.0957129001617431,0.4275930821895599,1.580872654914856,-3.017585277557373,#
2.266003131866455,-7.697710037231445,-0.2488535493612289,0.2773246467113495,1.5662122964859009,-3.148306608200073,#
2.266003131866455,-7.697710037231445,-0.2488535493612289,-0.1258345395326614,1.659061074256897,-3.38165020942688,#
2.187039852142334,-7.410572052001953,-0.6149553656578064,-0.2980934381484985,1.7079288959503174,-3.4696123600006104,#
2.421536445617676,-8.74337387084961,-1.361515998840332,-0.5583143830299377,1.7482447624206543,-3.665083408355713,#
3.919443368911743,-10.451848983764648,-1.373480200767517,-0.8063183426856995,1.5674339532852173,-3.8947620391845694,#
4.907679080963135,-10.817951202392578,-1.4141581058502195,-1.0372185707092283,1.4098354578018188,-3.9595117568969727,#
4.984249591827393,-10.023534774780272,-1.557727575302124,-1.1948171854019165,1.3511940240859983,-4.093898296356201,#
4.984249591827393,-10.023534774780272,-1.557727575302124,-0.9468132257461548,1.502684235572815,-4.213624477386475,#
4.945964336395264,-10.15035343170166,-1.6821542978286743,-0.7501204013824463,1.5320048332214355,-4.19529914855957,#
5.740381240844727,-10.932806968688965,-1.6773687601089478,-1.0726476907730105,1.349972367286682,-3.958290100097656,#
6.8650078773498535,-12.138789176940918,-2.045863389968872,-1.7262543439865112,1.0799779891967771,-3.75426721572876,#
7.767102241516113,-13.404592514038086,-2.108076810836792,-2.059777021408081,1.0286667346954346,-3.678522109985352,#
7.767102241516113,-13.404592514038086,-2.108076810836792,-2.2723517417907715,1.1618314981460571,-3.3804285526275635,#
7.850851535797119,-12.715458869934082,-2.0003998279571533,-2.255248069763184,1.1386191844940186,-3.2154998779296875,#
7.324430465698242,-11.672188758850098,-1.9908283948898315,-1.6932685375213623,1.115407109260559,-2.9467270374298096,#
7.216752529144287,-10.669595718383787,-1.8616160154342647,-1.1459494829177856,0.9883508682250975,-2.605874300003052,#
7.685746192932129,-10.24606704711914,-1.4739787578582764,-1.067760944366455,0.8808417320251465,-2.4165117740631104,#
7.685746192932129,-10.24606704711914,-1.4739787578582764,-1.0176715850830078,0.6731536388397217,-2.1599559783935547,#
7.927421569824219,-9.91585636138916,-1.0743772983551023,-0.9724688529968262,0.5289937257766724,-2.039008140563965,#
7.948956489562988,-9.236295700073242,-0.7034898400306702,-0.9468132257461548,0.4605787992477417,-1.9657063484191892,#
8.01356315612793,-8.202595710754395,-0.6460621356964111,-0.8441908955574036,0.3286358118057251,-1.8349851369857788,#
8.372486114501953,-7.527820110321045,-0.8590233325958252,-0.8820634484291077,0.2467822879552841,-1.7592401504516602,#
8.60219669342041,-7.618747234344482,-0.8111668825149536,-0.9883508682250975,0.0855186134576797,-1.593089580535889,#
8.60219669342041,-7.618747234344482,-0.8111668825149536,-1.0091196298599243,0.0207688063383102,-1.4513731002807615,#
8.855835914611816,-7.759923934936523,-0.5575276613235474,-0.965138614177704,0.0183254163712263,-1.3756279945373535,#
8.958727836608887,-7.460821151733398,-0.4474578499794006,-0.7317950129508972,-0.0134386392310261,-1.2290246486663818,#
9.30329418182373,-7.123432636260986,-0.2416750937700271,-0.4691306948661804,-0.0684148892760276,-1.0983033180236816,#
9.595218658447266,-7.013362884521484,0.2823530733585357,-0.3347443044185638,-0.1026223376393318,-1.0335536003112793,#
9.595218658447266,-7.013362884521484,0.2823530733585357,-0.152711808681488,-0.1673721522092819,-0.8625163435935974,#
9.824929237365724,-6.881758213043213,0.3852444589138031,-0.0781884491443634,-0.2028012871742248,-0.7611156702041626,#
9.803394317626951,-6.63769006729126,0.2081755697727203,0.1343863904476165,-0.2394521236419677,-0.5387672781944275,#
9.432506561279297,-6.144768238067627,0.1507478207349777,0.3640649616718292,-0.2040229737758636,-0.3225273489952087,#
9.1716890335083,-5.529813289642334,0.1483550071716308,0.42270627617836,-0.1844758540391922,-0.2199050188064575,#
8.968299865722656,-5.063212871551514,0.2201396822929382,0.3701734542846679,-0.1661504507064819,-0.0171037223190069,#
8.968299865722656,-5.063212871551514,0.2201396822929382,0.1966928243637085,-0.1478250324726104,0.1343863904476165,#
8.805586814880371,-4.929214477539063,-0.0406779870390892,0.100178949534893,-0.1380514800548553,0.1869192570447921,#
8.669197082519531,-4.847858428955078,-0.3373879790306091,-0.0940704718232154,-0.1258345395326614,0.2724378705024719,#
8.511269569396973,-4.766502857208252,-0.5742774605751038,-0.1869192570447921,-0.0561979450285434,0.31641885638237,#
8.410772323608398,-5.077569961547852,-0.5886343717575073,-0.1832541674375534,-0.0085518611595034,0.3213056325912475,#
8.410772323608398,-5.077569961547852,-0.5886343717575073,-0.1148392781615257,0.0427593067288398,0.3005368411540985,#
8.688338279724121,-5.127819538116455,-0.380458801984787,-0.0818535313010215,0.0439810007810592,0.2846547961235046,#
8.74337387084961,-4.924428939819336,-0.2943171858787536,-0.0610847249627113,0.0366508327424526,0.2773246467113495,#
8.70508861541748,-5.106283187866211,-0.5000999569892883,-0.0965138673782348,0.0720799788832664,0.2834331095218658,#
8.819944381713867,-5.225924491882324,-0.7082754969596863,-0.1734806150197982,0.0855186134576797,0.3213056325912475,#
8.748159408569336,-5.381458282470703,-0.7106683850288391,-0.3457395434379577,0.0818535313010215,0.4422534108161926,#
8.748159408569336,-5.381458282470703,-0.7106683850288391,-0.3371876776218414,0.1099525094032287,0.4935645759105682,#
8.539983749389648,-5.446063995361328,-0.7369893789291382,-0.2846547961235046,0.1099525094032287,0.5033381581306458,#
8.370094299316406,-5.2115678787231445,-0.6125625967979431,-0.1026223376393318,0.0733016654849052,0.4923428893089294,#
8.300702095031738,-5.280959606170654,-0.3038884699344635,0.0794101431965828,-0.0024433890357613,0.4300364553928375,#
8.307880401611328,-5.929414749145508,-0.1651047617197036,0.1466033309698104,-0.040315918624401,0.3958290219306946,#
8.307880401611328,-5.929414749145508,-0.1651047617197036,0.2480039745569229,-0.0965138673782348,0.365286648273468,#
8.695517539978027,-6.56829833984375,-0.2153540551662445,0.2932066619396209,-0.1172826737165451,0.3799469769001007,#
8.841480255126953,-6.845865249633789,-0.114855483174324,0.282211422920227,-0.1319430023431778,0.4581354260444641,#
8.556733131408691,-7.393822193145752,0.3014956414699554,0.2235700935125351,-0.0867403075098991,0.5583143830299377,#
8.484949111938477,-9.432506561279297,0.3493521213531494,0.1331647038459777,-0.069636583328247,0.6255075931549072,#
9.336793899536133,-13.651052474975586,-0.057427741587162,0.0635281130671501,-0.0781884491443634,0.7892146706581116,#
9.336793899536133,-13.651052474975586,-0.057427741587162,0.7342383861541748,-0.1954711079597473,0.9797989726066588,#
10.65523910522461,-16.132410049438477,0.2632104754447937,1.3120999336242676,-0.261442631483078,1.0885297060012815,#
11.210373878479004,-12.787243843078612,1.3351951837539673,2.398186445236206,-0.3066453039646148,1.480693817138672,#
10.76530933380127,-9.78664493560791,1.919043779373169,3.0823352336883545,-0.3323009014129638,1.7103723287582395,#
10.789237022399902,-9.166903495788574,1.931007981300354,3.768927335739136,-0.4251496791839599,2.080545663833618,#
10.789237022399902,-9.166903495788574,1.931007981300354,3.075005054473877,-0.4104893505573272,2.8184492588043213,#
10.526025772094728,-10.186245918273926,1.373480200767517,2.4116251468658447,-0.2895416021347046,3.210613250732422,#
9.324830055236816,-10.6504545211792,1.5337992906570437,1.3511940240859983,0.1869192570447921,3.6149940490722656,#
8.283952713012695,-10.571491241455078,1.6534404754638672,0.7757760286331177,0.9174925684928894,3.7799227237701416,#
7.810173511505127,-10.336994171142578,1.289731502532959,0.6230642199516296,1.1984822750091553,3.843450784683228,#
7.810173511505127,-10.336994171142578,1.289731502532959,0.6230642199516296,1.5601038932800293,3.905757427215576,#
7.326822757720947,-9.870393753051758,1.3351951837539673,1.2070342302322388,2.03412127494812,3.8727715015411377,#
6.69990348815918,-9.621540069580078,1.0719845294952393,1.640735745429993,2.282125234603882,3.839785575866699,#
5.740381240844727,-7.556533336639404,1.931007981300354,2.319998025894165,2.768359661102295,3.733498334884644,#
4.625326156616211,-5.280959606170654,3.785445213317871,2.569223642349243,2.993151426315308,3.7078425884246826,#
3.5365920066833496,-4.228117942810059,3.9529430866241455,2.5667803287506104,3.3767635822296143,3.650423288345337,#
3.5365920066833496,-4.228117942810059,3.9529430866241455,2.05366849899292,3.5856733322143555,3.5074849128723145,#
2.1846470832824707,-3.4169507026672363,2.44067907333374,1.6346272230148315,3.680965423583984,3.397532224655152,#
0.7417750358581543,-3.7902309894561768,2.5986053943634038,0.5668662190437317,3.71517276763916,3.167853593826294,#
-0.3493521213531494,-5.594419479370117,3.3930225372314453,-0.1221694499254226,3.6895172595977774,2.828222751617432,#
-0.9332008361816406,-5.580062389373779,2.7421746253967285,-0.1099525094032287,3.704177856445313,2.574110269546509,#
-0.9332008361816406,-5.580062389373779,2.7421746253967285,0.2089097648859024,3.552687406539917,2.158734083175659,#
-0.6843472719192505,-4.266402721405029,3.641876220703125,0.3738385140895843,3.3779852390289307,2.048781633377075,#
-1.588834285736084,-3.9912283420562735,2.1511476039886475,0.4214845895767212,3.3315608501434326,1.8093295097351076,#
-2.462214469909668,-5.670989990234375,0.1244267746806144,-0.1209477484226226,3.072561740875244,1.3780713081359863,#
-2.3234307765960693,-6.539584159851074,0.9595218896865844,-0.5570926666259766,2.90396785736084,1.1447278261184692,#
-3.206382274627685,-5.61834716796875,0.9834501147270204,-1.022558331489563,2.852656602859497,0.6829272508621216,#
-3.206382274627685,-5.61834716796875,0.9834501147270204,-1.0983033180236816,2.7121615409851074,0.4190412163734436,#
-3.680161237716675,-6.728617191314697,-1.2370892763137815,-1.29499614238739,2.4714879989624023,0.3445178270339966,#
-3.864408254623413,-9.525827407836914,-3.555734634399414,-1.8557538986206052,1.9339423179626465,0.0806318372488021,#
-3.603590488433838,-9.74835968017578,-3.2614171504974365,-1.878966212272644,1.4868022203445437,-0.128277912735939,#
-4.043870449066162,-10.53081226348877,-4.752145767211914,-1.6969337463378906,1.233911395072937,-0.1246128380298614,#
-4.043870449066162,-10.53081226348877,-4.752145767211914,-1.4892456531524658,0.5607577562332153,-0.0671931952238082,#
-3.969692707061768,-12.397214889526367,-6.300302028656006,-1.612636685371399,0.1918060332536697,-0.0122169442474842,#
-3.7016968727111816,-12.337392807006836,-6.362515449523926,-1.7311410903930664,-0.3616215586662292,0.1600419729948043,left
-3.9912283420562735,-12.0933256149292,-6.812366485595703,-1.5882028341293335,-0.8429691791534424,0.342074453830719,left
-4.249652862548828,-12.78485107421875,-7.690531730651855,-1.5662122964859009,-1.1019684076309204,0.4422534108161926,left
-3.5341989994049072,-13.395020484924316,-8.401200294494629,-1.525896430015564,-1.640735745429993,0.6536065340042114,left
-3.5341989994049072,-13.395020484924316,-8.401200294494629,-1.6712781190872192,-2.1941633224487305,0.8319739699363708,left
-2.8115665912628174,-13.469198226928713,-8.46341323852539,-1.838650107383728,-2.5008084774017334,0.8502993583679199,left
-3.428915023803711,-13.294522285461426,-9.994820594787598,-2.250361204147339,-3.1568586826324463,0.9003888368606567,left
-2.943171739578247,-14.713465690612791,-10.645668029785156,-2.5093605518341064,-3.4757206439971924,0.8661814332008362,left
-1.098305583000183,-13.378270149230955,-8.260024070739746,-3.483051061630249,-3.938743114471436,0.7464553117752075,left
-1.098305583000183,-13.378270149230955,-8.260024070739746,-4.682754993438721,-4.550811767578125,0.4092676639556885,left
2.452643394470215,-15.440884590148926,-6.183053970336914,-5.427988529205322,-5.0871357917785645,0.3042019307613373,left
4.761716842651367,-15.713665962219238,-3.81655216217041,-6.553169250488281,-6.518961429595947,-0.2150182276964187,left
7.001399040222168,-12.555140495300291,-1.8759729862213133,-6.20376443862915,-7.855495452880859,-0.365286648273468,left
8.779266357421875,-12.363714218139648,-4.285545349121094,-5.632011890411377,-8.504215240478516,-0.4556920528411865,left
8.779266357421875,-12.363714218139648,-4.285545349121094,-4.264935493469238,-9.964139938354492,-0.786771297454834,left
10.403992652893066,-13.17248821258545,-5.572883605957031,-3.542913913726806,-11.188278198242188,-0.6389462351799011,left
14.251651763916016,-11.732008934020996,3.854837417602539,-3.4610605239868164,-10.838872909545898,-0.3860554695129394,left
13.103096961975098,-12.370892524719238,8.884550094604492,-2.996816635131836,-9.73812770843506,-1.180156946182251,left
9.78664493560791,-11.78465175628662,6.539584159851074,-3.017585277557373,-8.984341621398926,-1.2106993198394775,left
7.197610855102539,-11.121840476989746,7.317252159118652,-2.7097182273864746,-6.284396171569824,-0.3518480062484741,left
7.197610855102539,-11.121840476989746,7.317252159118652,-2.7060532569885254,-4.108558654785156,0.2162399291992187,left
5.539384365081787,-11.69851016998291,10.210174560546877,-2.510582208633423,-3.167853593826294,0.4007157981395721,left
3.321237564086914,-11.710474014282228,10.84427261352539,-1.91317355632782,-1.6199668645858765,0.3921639025211334,left
0.973878800868988,-10.561919212341309,9.329615592956545,-1.2595670223236084,-0.6255075931549072,0.3225273489952087,left
-0.6915256977081299,-9.724431037902832,8.011170387268066,-1.0567656755447388,-0.3506263196468353,0.2748812437057495,left
-0.6915256977081299,-9.724431037902832,8.011170387268066,-0.7317950129508972,0.0219905003905296,0.1478250324726104,left
-1.6917256116867063,-8.815157890319824,6.654439926147461,-0.6939224600791931,0.1343863904476165,0.0952921733260154,left
-2.675175428390503,-9.090332984924316,4.859822750091553,-0.6768187284469604,0.4862344264984131,0.0513111688196659,left
-3.400200843811035,-9.633503913879396,3.1896328926086426,-0.6633800864219666,0.9223793148994446,-0.0610847249627113,left
-3.3403804302215576,-9.640682220458984,2.172683000564575,-0.5998519659042358,1.0714260339736938,-0.0989572554826736,left
-3.5198421478271484,-9.705288887023926,1.1198409795761108,-0.2932066619396209,1.2094775438308716,-0.1246128380298614,left
-3.5198421478271484,-9.705288887023926,1.1198409795761108,0.2528907656669616,1.2778924703598022,-0.1918060332536697,#
-3.7639100551605225,-9.686145782470703,0.3948157429695129,0.52655029296875,1.3915101289749146,-0.235787034034729,#
-3.13938307762146,-9.542576789855955,-0.0909272655844688,0.9223793148994446,1.4965757131576538,-0.2321219593286514,#
-2.4574286937713623,-8.82951545715332,-0.3254238963127136,1.0934165716171265,1.3646327257156372,-0.1844758540391922,#
-2.249253273010254,-8.587841033935547,-0.8542376756668091,0.9883508682250975,1.3780713081359863,-0.1417165547609329,#
-2.249253273010254,-8.587841033935547,-0.8542376756668091,0.6780403852462769,1.480693817138672,-0.1380514800548553,#
-2.234896183013916,-8.659625053405762,-0.9906285405158995,0.5534276366233826,1.5185662508010864,-0.1258345395326614,#
-2.878565788269043,-8.784051895141602,-1.529013752937317,0.4104893505573272,1.674943208694458,-0.0549762547016143,#
-3.2135608196258545,-9.164510726928713,-1.660618782043457,0.4068242609500885,1.931498885154724,-0.069636583328247,#
-2.4023938179016118,-8.630911827087402,-1.2921242713928225,0.4251496791839599,1.9339423179626465,-0.0537545569241046,#
-2.2372891902923584,-8.171488761901855,-1.179661512374878,0.4642439186573028,1.7506881952285769,0.0452026948332786,#
-2.2372891902923584,-8.171488761901855,-1.179661512374878,0.684148907661438,1.786117434501648,0.0048867780715227,#
-3.304487943649292,-8.250452041625977,-1.6055840253829956,0.7941014170646667,1.9608196020126345,-0.0806318372488021,#
-3.0101709365844727,-8.173882484436035,-1.8376877307891848,0.7977665066719055,2.1013145446777344,-0.1942494213581085,#
-1.6462620496749878,-7.977671146392822,-1.308874011039734,0.7440119385719299,1.9852535724639893,-0.2015795856714248,#
-1.4045867919921875,-7.920242786407471,-1.37587308883667,0.6988092660903931,1.7030421495437622,-0.2382304221391677,#
-1.4045867919921875,-7.920242786407471,-1.37587308883667,0.785549521446228,1.8410935401916504,-0.3701734542846679,#
-2.5292134284973145,-8.250452041625977,-2.014756679534912,0.8197570443153381,2.0316779613494877,-0.4471401870250702,#
-2.617748022079468,-7.743173599243164,-2.194218397140503,0.6768187284469604,2.279681921005249,-0.574196457862854,#
-1.2323036193847656,-7.8795647621154785,-1.9286150932312007,0.3860554695129394,2.0781023502349854,-0.6719319820404053,#
-1.1868400573730469,-8.592625617980957,-2.2923240661621094,0.2528907656669616,1.9681499004364011,-0.707361102104187,#
-1.1868400573730469,-8.592625617980957,-2.2923240661621094,0.0342074446380138,2.1245267391204834,-0.8112051486968994,#
-2.6560330390930176,-9.365508079528809,-3.136990547180176,-0.0280989725142717,2.3871910572052,-1.0017894506454468,#
-2.5746772289276123,-10.116853713989258,-3.464807271957397,-0.0146603342145681,2.563115119934082,-1.066539287567139,#
-1.1892328262329102,-10.334601402282717,-2.8977081775665283,0.1844758540391922,2.2674648761749268,-1.0323318243026731,#
-1.2705888748168943,-10.52841854095459,-2.8666017055511475,0.3078669905662536,2.137965440750122,-1.016449809074402,#
-2.555534601211548,-10.722238540649414,-3.103491306304932,0.5900784730911255,2.258913278579712,-1.0934165716171265,#
-2.555534601211548,-10.722238540649414,-3.103491306304932,0.7537854909896851,2.516690492630005,-1.2302463054656982,#
-2.469392776489258,-10.614561080932615,-3.022134780883789,0.7525637745857239,2.455605745315552,-1.27544903755188,#
-1.3902300596237185,-10.487741470336914,-2.7014968395233154,0.6780403852462769,2.0781023502349854,-1.2607886791229248,#
-1.227518081665039,-10.54038429260254,-2.4598214626312256,0.4239279925823211,1.8985131978988647,-1.2351330518722534,#
-1.4691929817199707,-10.906485557556152,-2.3880369663238525,0.2956500649452209,1.9119518995285036,-1.2632319927215576,#
-1.4691929817199707,-10.906485557556152,-2.3880369663238525,0.0439810007810592,1.926612138748169,-1.257123589515686,#
-1.1700903177261353,-10.985447883605955,-2.311466693878174,-0.0610847249627113,1.8765227794647217,-1.225359559059143,#
-0.97148597240448,-11.138589859008787,-2.4095723628997803,-0.1478250324726104,1.767791986465454,-1.1850436925888062,#
-1.0336993932724,-10.892127990722656,-2.452643394470215,-0.2394521236419677,1.7629051208496094,-1.1752701997756958,#
-1.093519926071167,-10.71266746520996,-2.5124638080596924,-0.2993151545524597,1.767791986465454,-1.178935170173645,#
-0.8638089299201965,-10.75813102722168,-2.553141593933105,-0.3836120665073395,1.7030421495437622,-1.1520578861236572,#
-0.8638089299201965,-10.75813102722168,-2.553141593933105,-0.4422534108161926,1.5906461477279663,-1.1117420196533203,#
-0.6197410225868225,-10.722238540649414,-2.44067907333374,-0.4312581717967987,1.534448266029358,-1.1044118404388428,#
-0.5048855543136597,-10.394421577453612,-2.524427890777588,-0.3213056325912475,1.4391560554504397,-1.0726476907730105,#
-0.4067798554897308,-10.325029373168944,-2.548356056213379,-0.152711808681488,1.3634110689163208,-1.054322361946106,#
-0.1339980661869049,-10.779664993286133,-2.4717857837677,-0.0610847249627113,1.3304253816604614,-1.0616525411605835,#
-0.1339980661869049,-10.779664993286133,-2.4717857837677,0.0818535313010215,1.220472812652588,-1.0518789291381836,#
0.3110669553279876,-10.573883056640623,-2.400001049041748,0.1185043603181839,1.1532796621322632,-1.031110167503357,#
0.2703889608383178,-10.001997947692873,-2.0721843242645264,0.3481829464435577,1.0909732580184937,-1.0335536003112793,#
0.3613162040710449,-9.533005714416504,-1.8113667964935305,0.5070031881332397,1.0262233018875122,-1.0323318243026731,#
0.672383189201355,-9.834501266479492,-1.8113667964935305,0.5509842038154602,0.971247136592865,-1.044548749923706,#
1.129412293434143,-9.257830619812012,-1.4500504732131958,0.5399889945983887,0.8405258059501648,-1.0824213027954102,#
1.129412293434143,-9.257830619812012,-1.4500504732131958,0.411711037158966,0.7110261917114258,-1.100746750831604,#
1.1198409795761108,-8.61894702911377,-1.0887343883514404,0.4300364553928375,0.6768187284469604,-1.1459494829177856,#
1.146162033081055,-8.781659126281738,-0.7992027401924133,0.5913001298904419,0.5913001298904419,-1.257123589515686,#
1.7539390325546265,-8.5160551071167,-0.7537391781806946,0.7134696245193481,0.5216635465621948,-1.2962177991867063,#
2.376072883605957,-7.601996898651123,-0.6987042427062988,0.8173136115074158,0.3115321099758148,-1.3316470384597778,#
2.376072883605957,-7.601996898651123,-0.6987042427062988,0.939483106136322,0.1795890927314758,-1.4587032794952393,#
2.51007080078125,-6.812366485595703,-0.5575276613235474,1.035996913909912,0.1771456897258758,-1.571099042892456,#
2.7254250049591064,-6.8554368019104,-0.4666004180908203,1.16427481174469,0.1966928243637085,-1.775122046470642,#
3.464807271957397,-6.9583282470703125,-0.1794617027044296,1.220472812652588,0.1075091138482093,-1.9461593627929688,#
4.675575256347656,-8.456235885620117,0.3014956414699554,1.2058125734329224,0.0171037223190069,-2.042673110961914,#
4.675575256347656,-8.456235885620117,0.3014956414699554,1.2962177991867063,-0.1734806150197982,-2.2515828609466557,#
5.953342437744141,-8.449056625366211,0.5718846321105957,1.1764918565750122,-0.287098228931427,-2.311445951461792,#
6.821937084197998,-7.671389579772949,0.3756731450557709,1.0469921827316284,-0.4239279925823211,-2.3383231163024902,#
6.788437843322754,-6.719045639038086,-0.0119641125202178,1.0531005859375,-0.4068242609500885,-2.586327314376831,#
6.843472957611084,-6.62333345413208,0.2081755697727203,1.0176715850830078,-0.3261924386024475,-2.640081882476806,#
7.934599876403809,-7.98963451385498,0.6317051649093628,0.8002098798751831,-0.3017585575580597,-2.603430986404419,#
7.934599876403809,-7.98963451385498,0.6317051649093628,0.4776825606822967,-0.517998456954956,-2.5594499111175537,#
9.533005714416504,-8.221738815307617,0.9523434042930604,0.2150182276964187,-0.6719319820404053,-2.533794403076172,#
10.439885139465332,-7.905886173248291,0.662811815738678,-0.0097735561430454,-0.6927007436752319,-2.491034984588623,#
10.214959144592283,-7.487142086029053,0.3637090623378753,-0.1038440242409706,-0.4935645759105682,-2.4323935508728027,#
10.140782356262209,-8.389235496520996,0.2153540551662445,-0.1453816443681717,-0.3787252902984619,-2.35787034034729,#
10.140782356262209,-8.389235496520996,0.2153540551662445,-0.2480039745569229,-0.2687727808952331,-2.093984365463257,#
10.549955368041992,-8.482556343078613,0.4570291042327881,-0.3432961404323578,-0.3029802441596985,-1.927833914756775,#
10.22931671142578,-8.09970474243164,0.5455635190010071,-0.2235700935125351,-0.2809897363185882,-1.640735745429993,#
9.631111145019531,-7.22871732711792,0.5814558863639832,0.1026223376393318,-0.1942494213581085,-1.359745979309082,#
9.236295700073242,-6.7310099601745605,0.7417750358581543,0.1856975704431533,-0.1881409436464309,-1.1997039318084717,#
8.922836303710938,-6.362515449523926,0.9475577473640442,0.2761029601097107,-0.2516690790653229,-0.9309312105178832,#
8.922836303710938,-6.362515449523926,0.9475577473640442,0.310310423374176,-0.287098228931427,-0.7403469085693359,#
8.609375953674316,-5.943771839141846,1.043270707130432,0.3029802441596985,-0.282211422920227,-0.6719319820404053,#
8.578269004821777,-5.675775527954102,0.8231310248374939,0.2321219593286514,-0.2761029601097107,-0.5619794726371765,#
8.506484031677246,-5.338387489318848,0.4522434771060943,0.0745233595371246,-0.235787034034729,-0.4544703662395477,#
8.38684368133545,-5.247459888458252,0.229710966348648,-0.0219905003905296,-0.175924003124237,-0.416597843170166,#
8.38684368133545,-5.247459888458252,0.229710966348648,-0.1624853760004043,-0.0280989725142717,-0.3775035738945007,#
8.415557861328125,-5.355136871337891,0.3302095234394073,-0.199136197566986,0.0207688063383102,-0.3640649616718292,#
8.638089179992676,-5.513063907623291,0.4115655124187469,-0.1820324808359146,0.040315918624401,-0.3481829464435577,#
8.896513938903809,-5.864808082580566,0.318245381116867,-0.0684148892760276,0.0366508327424526,-0.342074453830719,#
9.06401252746582,-5.742774486541748,0.2488535493612289,-0.0146603342145681,0.031764056533575,-0.3261924386024475,#
8.987441062927246,-5.496313571929932,0.2081755697727203,0.0586413368582725,-0.0183254163712263,-0.2687727808952331,#
8.987441062927246,-5.496313571929932,0.2081755697727203,0.2296785563230514,-0.031764056533575,-0.2052446752786636,#
8.970691680908203,-5.223531246185303,0.5383850932121277,0.2895416021347046,-0.0488677769899368,-0.1575985848903656,#
9.04726219177246,-4.950750350952148,0.4091726541519165,0.2638860046863556,-0.1099525094032287,-0.0513111688196659,#
8.824729919433594,-4.8813581466674805,0.1268195956945419,0.2101314514875412,-0.1185043603181839,-0.007330167107284,#
8.6907320022583,-5.175675392150879,0.1363908797502517,0.0488677769899368,-0.0476460866630077,0.0745233595371246,#
8.6907320022583,-5.175675392150879,0.1363908797502517,-0.1514901220798492,0.0439810007810592,0.1478250324726104,#
8.800802230834961,-5.852844715118408,0.3756731450557709,-0.2125748395919799,0.0610847249627113,0.1808107793331146,#
8.86780071258545,-5.943771839141846,0.7728817462921143,-0.1734806150197982,0.0464243926107883,0.2602209150791168,#
8.807979583740234,-5.788238048553467,0.5096712112426758,-0.0965138673782348,0.0342074446380138,0.3970507085323334,#
8.817551612854004,-6.08016300201416,0.4259224236011505,-0.0916270837187767,0.0574196390807628,0.471574068069458,#
8.817551612854004,-6.08016300201416,0.4259224236011505,-0.3494046330451965,0.0891837030649185,0.652384877204895,#
9.052047729492188,-7.207180976867676,1.026520848274231,-0.5070031881332397,0.1380514800548553,0.7757760286331177,#
9.408578872680664,-9.31765079498291,1.706082463264465,-0.7916580438613892,0.3603998720645904,1.1202938556671145,#
9.59043312072754,-10.329815864562988,1.6271194219589231,-1.2131426334381104,0.63283771276474,1.5417784452438354,#
9.851251602172852,-11.284551620483398,0.3589234054088592,-1.336533784866333,0.7794410586357117,1.7311410903930664,#
9.040083885192873,-12.062219619750977,1.239482045173645,-0.9846857786178588,1.281557559967041,2.0438947677612305,#
9.040083885192873,-12.062219619750977,1.239482045173645,-0.2858764827251434,1.718924045562744,2.310224294662476,#
9.485149383544922,-11.882757186889648,4.666004180908203,-0.1966928243637085,1.7604618072509766,2.5618932247161865,#
10.15035343170166,-11.34676456451416,4.23529577255249,-0.5241069197654724,1.996248722076416,3.0420193672180176,#
8.008777618408203,-9.772287368774414,2.225324869155884,-0.7953230738639832,2.5240206718444824,3.2045047283172607,#
7.056434154510498,-10.140782356262209,5.010570526123047,-0.8429691791534424,2.4861481189727783,3.2875797748565674,#
7.056434154510498,-10.140782356262209,5.010570526123047,-1.452594757080078,2.530129194259644,3.80313491821289,#
5.876771926879883,-11.799009323120115,6.206982612609863,-1.837428450584412,2.797680377960205,3.991276025772095,#
5.242674350738525,-11.370694160461426,3.869194030761719,-1.9852535724639893,2.681619167327881,3.980280637741089,#
5.319244384765625,-9.66221809387207,3.936193227767944,-1.401283621788025,2.1795029640197754,3.966842174530029,#
4.6061835289001465,-9.183652877807615,4.225724697113037,-1.2045906782150269,2.002357244491577,4.012044906616211,#
3.806980848312378,-9.674181938171388,3.177668571472168,-1.011563062667847,2.1623992919921875,3.9729504585266113,#
3.806980848312378,-9.674181938171388,3.177668571472168,-0.9492565989494324,2.170951128005981,3.801913261413574,#
3.670589685440064,-9.81535816192627,3.019742012023926,-0.905275583267212,2.1098663806915283,3.795804738998413,#
3.268595933914185,-8.676375389099121,2.792424201965332,-0.7000309228897095,2.114753007888794,3.7457151412963863,#
2.411965131759644,-8.319844245910645,2.3712873458862305,-0.574196457862854,2.175837755203247,3.700512647628784,#
1.813759446144104,-8.898907661437988,0.9762716889381408,-0.5045598149299622,2.192941665649414,3.6149940490722656,#
1.813759446144104,-8.898907661437988,0.9762716889381408,-0.2150182276964187,2.1477389335632324,3.4073057174682617,#
1.6079767942428589,-8.24566650390625,1.34476637840271,-0.0244338884949684,2.1562907695770264,3.3291175365448,#
0.7178468108177185,-7.2335028648376465,1.4859429597854614,0.310310423374176,2.22714900970459,3.115320920944214,#
0.3278167247772217,-7.030113220214844,-0.3541377484798431,0.3506263196468353,2.074437141418457,2.8709819316864014,#
-0.0239282250404357,-7.458428382873535,-0.5599204897880554,0.2309002727270126,1.9669280052185056,2.758586168289185,#
-0.5048855543136597,-7.123432636260986,-1.0767701864242554,0.0574196390807628,1.8447586297988887,2.4666011333465576,#
-0.5048855543136597,-7.123432636260986,-1.0767701864242554,0.0537545569241046,1.6847167015075684,2.19782829284668,#
-0.8853443264961243,-6.661618232727051,-1.5122638940811155,0.0549762547016143,1.594311237335205,2.082988977432251,#
-1.4572290182113647,-6.063412666320801,-1.641476273536682,0.0268772784620523,1.485580563545227,1.830098390579224,#
-1.856830358505249,-6.015556335449219,-1.8544375896453855,-0.0134386392310261,1.4110571146011353,1.69082510471344,#
-2.256431579589844,-6.238089084625244,-2.833101987838745,-0.0549762547016143,1.2559019327163696,1.3731845617294312,#
-2.256431579589844,-6.238089084625244,-2.833101987838745,-0.1172826737165451,1.067760944366455,1.060430884361267,#
-2.988635540008545,-6.302694320678711,-3.1585259437561035,-0.1856975704431533,0.9688037633895874,0.911384105682373,#
-3.4480574131011963,-6.530013084411621,-3.369094133377075,-0.2431172132492065,0.7574505805969238,0.5876350998878479,#
-3.617947816848755,-7.479963302612305,-4.541577339172363,-0.2199050188064575,0.4886777997016907,0.3005368411540985,#
-4.242474555969238,-7.645068168640137,-5.115854740142822,-0.2455605864524841,0.3726168274879455,0.1918060332536697,#
-4.242474555969238,-7.645068168640137,-5.115854740142822,-0.3200839459896087,0.1685938388109207,0.0684148892760276,#
-4.199403762817383,-9.439685821533203,-5.972485065460205,-0.4898994863033294,-0.0745233595371246,-0.0464243926107883,#
-4.130012035369873,-10.188638687133787,-6.802794933319092,-0.7317950129508972,-0.2431172132492065,-0.0891837030649185,#
-3.936193227767944,-10.14556884765625,-8.178668022155762,-1.2986613512039185,-0.7256865501403809,-0.1246128380298614,#
-3.483949899673462,-10.695917129516602,-9.257830619812012,-1.48802387714386,-0.998124361038208,-0.129499614238739,left
-2.900100946426392,-10.44467067718506,-9.477970123291016,-1.7311410903930664,-1.461146593093872,-0.1466033309698104,left
-2.900100946426392,-10.44467067718506,-9.477970123291016,-1.7726787328720093,-1.8972915410995483,-0.1319430023431778,left
-2.2133607864379883,-10.882556915283203,-9.501898765563965,-1.747023105621338,-2.1892764568328857,-0.0952921733260154,left
-1.1820544004440308,-12.198609352111816,-8.941977500915527,-1.7445796728134155,-2.9174065589904785,-0.0891837030649185,left
-0.2512463629245758,-12.021540641784668,-7.956134796142578,-1.6615043878555298,-3.7017343044281006,-0.0952921733260154,left
0.117248311638832,-12.134003639221191,-7.202396392822266,-1.665169596672058,-4.070686340332031,-0.0916270837187767,left
0.117248311638832,-12.134003639221191,-7.202396392822266,-1.7922258377075195,-4.675425052642822,-0.1136175915598869,left
-0.1435693651437759,-11.358729362487791,-6.149554252624512,-1.885074615478516,-4.853792667388916,-0.1172826737165451,left
0.5766702890396118,-10.920842170715332,-5.039284706115723,-2.311445951461792,-5.12134313583374,-0.0537545569241046,left
1.765903115272522,-12.564711570739746,-3.522234916687012,-2.88442063331604,-5.390116214752197,-0.1123958900570869,left
2.7972097396850586,-12.722638130187988,-2.289931058883667,-3.009033679962158,-5.529389381408691,-0.2137965410947799,left
3.876372575759888,-12.629318237304688,-3.170490026473999,-2.963830947875977,-5.884902477264404,-0.4190412163734436,left
3.876372575759888,-12.629318237304688,-3.170490026473999,-3.542913913726806,-6.239193439483643,-0.5851916074752808,left
4.759324073791504,-11.327622413635254,-1.835294842720032,-3.928969383239746,-6.396791934967041,-0.7293516397476196,left
6.168696403503418,-10.688737869262695,-4.804787635803223,-4.328463554382324,-6.726650238037109,-0.9956809878349304,left
8.374878883361816,-10.753345489501951,-2.809173583984375,-3.8776583671569824,-7.250756740570068,-1.3108781576156616,left
9.812965393066406,-13.024134635925291,4.431507587432861,-3.341334342956543,-7.309398174285889,-1.4745851755142212,left
9.812965393066406,-13.024134635925291,4.431507587432861,-1.7897825241088867,-7.754095077514648,-1.859418988227844,left
9.059226989746094,-13.801800727844238,8.068597793579102,-1.2583452463150024,-8.008207321166992,-1.91317355632782,left
7.252645492553711,-11.13619613647461,5.627918720245361,-1.9253904819488523,-7.992325305938721,-1.3463072776794434,left
6.781259536743164,-9.018548011779783,4.876572608947754,-3.398754119873047,-6.47498083114624,-0.7098045349121094,left
5.50349235534668,-13.931013107299805,7.405786037445068,-3.593003273010254,-5.351021766662598,-0.7085827589035034,left
4.35972261428833,-15.270994186401367,8.798408508300781,-2.2723517417907715,-4.095119953155518,-0.8893935680389404,left
4.35972261428833,-15.270994186401367,8.798408508300781,-1.0518789291381836,-3.3376693725585938,-0.1795890927314758,left
3.488735675811768,-13.521841049194336,7.867600917816162,-0.4789042472839355,-2.9980382919311523,0.1075091138482093,left
2.7014968395233154,-10.33938694000244,7.039684295654297,0.4092676639556885,-2.395742893218994,0.2370087206363678,left
1.5553346872329712,-9.052047729492188,4.780859470367432,0.1624853760004043,-1.571099042892456,0.4825693070888519,left
-0.4929214715957641,-9.78664493560791,3.6323046684265137,-0.1185043603181839,-1.0323318243026731,0.494786262512207,left
-0.4929214715957641,-9.78664493560791,3.6323046684265137,-0.6829272508621216,0.1514901220798492,0.3384093642234802,left
-2.438286304473877,-10.841878890991213,2.926422357559204,-0.7879929542541504,0.7342383861541748,0.2394521236419677,left
-3.869194030761719,-11.131410598754885,2.900100946426392,-0.5729747414588928,1.2265812158584597,-0.0329857505857944,#
-4.34536600112915,-10.334601402282717,2.1918253898620605,-0.2467822879552841,1.0738694667816162,-0.1588202863931656,#
-3.962514162063599,-9.846465110778809,1.3854442834854126,-0.003665083553642,0.95169997215271,-0.1539334952831268,#
-3.962514162063599,-9.846465110778809,1.3854442834854126,0.4385882914066314,0.8209787011146545,-0.1319430023431778,#
-3.218346357345581,-9.30329418182373,0.9260223507881165,0.6230642199516296,0.7794410586357117,-0.0855186134576797,#
-3.2446675300598145,-8.970691680908203,0.6819544434547424,0.6646018028259277,0.813648521900177,-0.0904053896665573,#
-3.3475589752197266,-8.394021987915039,0.2991028428077698,0.6389462351799011,1.016449809074402,-0.128277912735939,#
-2.837887763977051,-7.645068168640137,0.2991028428077698,0.5693095922470093,1.0714260339736938,-0.1136175915598869,#
-2.273181438446045,-7.975277900695801,-0.0885344371199607,0.2296785563230514,1.0372185707092283,-0.0024433890357613,#
-2.273181438446045,-7.975277900695801,-0.0885344371199607,-0.1197260618209838,0.971247136592865,0.0867403075098991,#
-1.94297194480896,-8.34855842590332,-0.4618147313594818,-0.2602209150791168,0.998124361038208,0.0940704718232154,#
-1.4715858697891235,-8.415557861328125,-0.4737788736820221,-0.3115321099758148,1.0274450778961182,0.0977355539798736,#
-0.794417142868042,-7.77906608581543,-0.7322037816047668,-0.1710372269153595,0.98590749502182,0.1087308079004287,#
-0.4761717021465301,-7.893921852111816,-1.2323036193847656,-0.0659715011715889,0.9773555994033812,0.1038440242409706,#
-0.4761717021465301,-7.893921852111816,-1.2323036193847656,0.1490467190742492,1.0347752571105957,0.0293206684291362,#
-0.4331009089946747,-8.056633949279785,-1.2825528383255005,0.1905843466520309,1.0934165716171265,-0.0244338884949684,#
-0.6556334495544434,-8.568697929382324,-1.6103696823120115,0.3701734542846679,1.1764918565750122,-0.1820324808359146,#
-0.7896314859390259,-8.501699447631836,-1.8951154947280884,0.5021164417266846,1.320651650428772,-0.3115321099758148,#
-0.7561319470405579,-9.20040225982666,-1.0145567655563354,0.6218425035476685,1.320651650428772,-0.3762818872928619,#
