accX,accY,accZ,gyrX,gyrY,gyrZ,annotation
9.351150512695312,-1.6869399547576904,2.3090739250183105,0.031764056533575,0.0342074446380138,0.0586413368582725,#
9.4061861038208,-1.7132610082626345,2.2995026111602783,0.0134386392310261,0.0342074446380138,0.0488677769899368,#
9.327221870422363,-1.7754744291305542,2.258824586868286,0.0085518611595034,0.0293206684291362,0.0366508327424526,#
9.30329418182373,-1.7204395532608032,2.2205395698547363,0.0097735561430454,0.0305423624813556,0.031764056533575,#
9.336793899536133,-1.7491532564163208,2.289931058883667,0.0158820282667875,0.0268772784620523,0.0195471122860908,#
9.336793899536133,-1.7491532564163208,2.289931058883667,0.0280989725142717,0.0256555844098329,0.0061084721237421,#
9.365508079528809,-1.761117458343506,2.3186452388763428,0.0280989725142717,0.0232121963053941,0.0061084721237421,#
9.29611587524414,-1.7706886529922483,2.3162522315979004,0.0244338884949684,0.0195471122860908,-0.0097735561430454,#
9.336793899536133,-1.7467604875564575,2.3018953800201416,0.0195471122860908,0.0146603342145681,-0.0183254163712263,#
9.23390293121338,-1.782652735710144,2.234896183013916,0.0109952501952648,0.0109952501952648,-0.0232121963053941,#
9.23390293121338,-1.782652735710144,2.234896183013916,0.0061084721237421,0.0109952501952648,-0.0305423624813556,#
9.35832977294922,-1.794616937637329,2.304288148880005,0.0085518611595034,0.0109952501952648,-0.0342074446380138,#
9.327221870422363,-1.8783657550811768,2.287538528442383,0.0061084721237421,0.0085518611595034,-0.0390942245721817,#
9.274580955505373,-1.7635102272033691,2.337787628173828,-0.0048867780715227,0.0109952501952648,-0.040315918624401,#
9.355937004089355,-1.8448662757873533,2.321038007736206,-0.0061084721237421,0.0097735561430454,-0.0415376126766204,#
9.355937004089355,-1.8448662757873533,2.321038007736206,-0.0085518611595034,0.0048867780715227,-0.0439810007810592,#
9.308080673217772,-1.8664016723632808,2.3401806354522705,-0.007330167107284,0.003665083553642,-0.0464243926107883,#
9.265008926391602,-1.8735800981521609,2.3617160320281982,0.0012216945178806,0.0012216945178806,-0.0464243926107883,#
9.245866775512695,-1.8281164169311523,2.376072883605957,0.0134386392310261,-0.0024433890357613,-0.0464243926107883,#
9.29611587524414,-1.902293920516968,2.344966173171997,0.0195471122860908,-0.0012216945178806,-0.0464243926107883,#
9.298508644104004,-1.8376877307891848,2.2061824798583984,0.0183254163712263,-0.003665083553642,-0.0427593067288398,#
9.298508644104004,-1.8376877307891848,2.2061824798583984,0.0012216945178806,-0.0024433890357613,-0.0415376126766204,#
9.375079154968262,-1.801795244216919,2.2947168350219727,-0.0061084721237421,-0.0048867780715227,-0.0427593067288398,#
9.42772102355957,-1.8783657550811768,2.3856441974639893,-0.0244338884949684,-0.007330167107284,-0.0452026948332786,#
9.276973724365234,-1.947757601737976,2.366501569747925,-0.0329857505857944,-0.0024433890357613,-0.0427593067288398,#
9.308080673217772,-1.88075852394104,2.4023938179016118,-0.031764056533575,-0.0024433890357613,-0.040315918624401,#
9.308080673217772,-1.88075852394104,2.4023938179016118,-0.0183254163712263,-0.0097735561430454,-0.0342074446380138,#
9.15733242034912,-1.88075852394104,2.414358139038086,-0.0097735561430454,-0.0097735561430454,-0.0305423624813556,#
9.236295700073242,-1.887937068939209,2.342573404312134,0.0085518611595034,-0.0097735561430454,-0.0232121963053941,#
9.33440113067627,-1.8089739084243772,2.3545374870300293,0.0171037223190069,-0.0122169442474842,-0.0207688063383102,#
9.415757179260254,-1.8616160154342647,2.4335007667541504,0.0109952501952648,-0.0122169442474842,-0.0183254163712263,#
9.28893756866455,-1.902293920516968,2.438286304473877,-0.0048867780715227,-0.0048867780715227,-0.0146603342145681,#
9.28893756866455,-1.902293920516968,2.438286304473877,-0.0244338884949684,0.0012216945178806,-0.0097735561430454,#
9.339186668395996,-1.887937068939209,2.390429735183716,-0.0293206684291362,-0.0024433890357613,-0.007330167107284,#
9.293723106384276,-1.9046868085861208,2.3976082801818848,-0.0280989725142717,-0.0048867780715227,-0.0048867780715227,#
9.31047248840332,-1.868794322013855,2.4023938179016118,-0.0195471122860908,-0.007330167107284,-0.0024433890357613,#
9.284152030944824,-1.8472589254379272,2.4095723628997803,-0.003665083553642,-0.0097735561430454,-0.0012216945178806,#
9.284152030944824,-1.8472589254379272,2.4095723628997803,0.003665083553642,-0.0097735561430454,-0.0024433890357613,#
9.298508644104004,-1.8424735069274905,2.3712873458862305,0.003665083553642,-0.0097735561430454,-0.0024433890357613,#
9.219545364379885,-1.8209381103515625,2.3784656524658203,-0.003665083553642,-0.0097735561430454,-0.0012216945178806,#
9.346364974975586,-1.916650891304016,2.416750907897949,-0.0061084721237421,-0.0109952501952648,-0.0012216945178806,#
9.339186668395996,-1.8783657550811768,2.3497519493103027,-0.007330167107284,-0.0097735561430454,0.0012216945178806,#
9.339186668395996,-1.8783657550811768,2.3497519493103027,-0.003665083553642,-0.007330167107284,0.0048867780715227,#
9.32004451751709,-1.8257235288619995,2.411965131759644,-0.0012216945178806,-0.0048867780715227,0.0061084721237421,#
9.30329418182373,-1.832902193069458,2.3545374870300293,0.0012216945178806,-0.0048867780715227,0.0109952501952648,#
9.33440113067627,-1.8472589254379272,2.366501569747925,0.0012216945178806,0.0024433890357613,0.0134386392310261,#
9.401400566101074,-1.8209381103515625,2.3497519493103027,-0.0024433890357613,0.0048867780715227,0.0146603342145681,#
9.315258979797363,-1.8903299570083616,2.342573404312134,-0.0085518611595034,0.0012216945178806,0.0146603342145681,#
9.315258979797363,-1.8903299570083616,2.342573404312134,-0.0061084721237421,0.003665083553642,0.0158820282667875,#
9.291330337524414,-1.8472589254379272,2.3976082801818848,-0.0024433890357613,0.0024433890357613,0.0158820282667875,#
9.243474006652832,-1.8903299570083616,2.3545374870300293,0.0109952501952648,0.0012216945178806,0.0158820282667875,#
9.253045082092283,-1.758724570274353,2.328216552734375,0.0171037223190069,0.0012216945178806,0.0195471122860908,#
9.322437286376951,-1.8305093050003047,2.3066811561584477,0.0122169442474842,0.0012216945178806,0.0207688063383102,#
9.322437286376951,-1.8305093050003047,2.3066811561584477,-0.003665083553642,0.0048867780715227,0.0219905003905296,#
9.327221870422363,-1.8472589254379272,2.380858421325684,-0.0109952501952648,0.0048867780715227,0.0195471122860908,#
9.236295700073242,-1.794616937637329,2.416750907897949,-0.0280989725142717,0.0122169442474842,0.0195471122860908,#
9.226724624633787,-1.8472589254379272,2.344966173171997,-0.0305423624813556,0.0097735561430454,0.0195471122860908,#
9.255437850952148,-1.8735800981521609,2.3234307765960693,-0.0268772784620523,0.0085518611595034,0.0183254163712263,#
9.255437850952148,-1.8735800981521609,2.3234307765960693,-0.0097735561430454,0.0024433890357613,0.0183254163712263,#
9.276973724365234,-1.8065810203552248,2.2995026111602783,0.0109952501952648,-0.0012216945178806,0.0134386392310261,#
9.355937004089355,-1.804188132286072,2.3401806354522705,0.0146603342145681,-0.0024433890357613,0.0109952501952648,#
9.382257461547852,-1.710868239402771,2.376072883605957,0.0109952501952648,-0.0048867780715227,0.0061084721237421,#
9.365508079528809,-1.8257235288619995,2.3330020904541016,0.0024433890357613,-0.0061084721237421,0.0048867780715227,#
9.32004451751709,-1.8999011516571045,2.2779672145843506,-0.0146603342145681,-0.0024433890357613,0.0048867780715227,#
9.32004451751709,-1.8999011516571045,2.2779672145843506,-0.0293206684291362,-0.0012216945178806,0.0061084721237421,#
9.272188186645508,-1.8305093050003047,2.321038007736206,-0.0342074446380138,-0.003665083553642,0.0061084721237421,#
9.31765079498291,-1.8544375896453855,2.321038007736206,-0.0354291386902332,-0.0085518611595034,0.007330167107284,#
9.327221870422363,-1.8376877307891848,2.3234307765960693,-0.0256555844098329,-0.0146603342145681,0.003665083553642,#
9.257830619812012,-1.8664016723632808,2.366501569747925,-0.0183254163712263,-0.0171037223190069,0.0012216945178806,#
9.257830619812012,-1.8664016723632808,2.366501569747925,-0.0012216945178806,-0.0256555844098329,-0.007330167107284,#
9.363115310668944,-1.7730815410614014,2.3401806354522705,0.0024433890357613,-0.0280989725142717,-0.0122169442474842,#
9.272188186645508,-1.8257235288619995,2.3401806354522705,0.0024433890357613,-0.0256555844098329,-0.0134386392310261,#
9.353544235229492,-1.801795244216919,2.3306093215942383,-0.0122169442474842,-0.0256555844098329,-0.0134386392310261,#
9.293723106384276,-1.8544375896453855,2.4191436767578125,-0.0195471122860908,-0.0268772784620523,-0.0134386392310261,#
9.29611587524414,-1.8975083827972408,2.4095723628997803,-0.0293206684291362,-0.0256555844098329,-0.0109952501952648,#
9.29611587524414,-1.8975083827972408,2.4095723628997803,-0.0256555844098329,-0.0256555844098329,-0.0109952501952648,#
9.327221870422363,-1.9046868085861208,2.4095723628997803,-0.0183254163712263,-0.0232121963053941,-0.0122169442474842,#
9.30329418182373,-1.8472589254379272,2.364108800888061,-0.0061084721237421,-0.0183254163712263,-0.0134386392310261,#
9.293723106384276,-1.8376877307891848,2.3330020904541016,-0.0024433890357613,-0.0183254163712263,-0.0158820282667875,#
9.31047248840332,-1.916650891304016,2.3090739250183105,-0.003665083553642,-0.0171037223190069,-0.0195471122860908,#
9.31047248840332,-1.916650891304016,2.3090739250183105,-0.0134386392310261,-0.0183254163712263,-0.0219905003905296,#
9.279366493225098,-1.8831514120101929,2.337787628173828,-0.0183254163712263,-0.0195471122860908,-0.0219905003905296,#
9.34875774383545,-1.9573287963867188,2.266003131866455,-0.0280989725142717,-0.0171037223190069,-0.0195471122860908,#
9.391828536987305,-1.9286150932312007,2.344966173171997,-0.0305423624813556,-0.0183254163712263,-0.0183254163712263,#
9.463613510131836,-1.9334007501602173,2.392822742462158,-0.0268772784620523,-0.0171037223190069,-0.0207688063383102,#
9.463613510131836,-1.9334007501602173,2.392822742462158,-0.0183254163712263,-0.0195471122860908,-0.0195471122860908,#
9.456435203552246,-1.8951154947280884,2.4598214626312256,-0.0171037223190069,-0.0183254163712263,-0.0171037223190069,#
9.44447135925293,-1.902293920516968,2.380858421325684,-0.0171037223190069,-0.0219905003905296,-0.0097735561430454,#
9.434900283813477,-1.868794322013855,2.4502503871917725,-0.0158820282667875,-0.0171037223190069,-0.0097735561430454,#
9.410971641540527,-1.8735800981521609,2.431107759475708,-0.0134386392310261,-0.0183254163712263,0.003665083553642,#
9.238687515258787,-1.8065810203552248,2.514856576919556,-0.0024433890357613,-0.007330167107284,0.0085518611595034,#
9.238687515258787,-1.8065810203552248,2.514856576919556,0.0048867780715227,0.0085518611595034,0.0134386392310261,#
9.425328254699709,-1.739582061767578,2.4358932971954346,0.003665083553642,0.003665083553642,0.0097735561430454,#
9.18126106262207,-1.730010747909546,2.3258235454559326,0.0012216945178806,0.0109952501952648,0.0061084721237421,#
9.183652877807615,-1.8281164169311523,2.3497519493103027,0.0048867780715227,0.0183254163712263,-0.003665083553642,#
9.226724624633787,-1.9238293170928955,2.335394859313965,0.0171037223190069,0.0085518611595034,-0.0158820282667875,#
9.226724624633787,-1.9238293170928955,2.335394859313965,0.0610847249627113,-0.007330167107284,-0.0439810007810592,#
9.34157943725586,-1.921436548233032,2.304288148880005,0.0940704718232154,-0.0183254163712263,-0.0623064190149307,#
9.31047248840332,-1.950150489807129,2.2755744457244877,0.1649287492036819,-0.0427593067288398,-0.1014006435871124,#
9.442078590393066,-2.0243279933929443,2.2396819591522217,0.2223483920097351,-0.0623064190149307,-0.1368297785520553,#
9.401400566101074,-1.9884356260299685,2.335394859313965,0.2431172132492065,-0.069636583328247,-0.1478250324726104,#
9.401400566101074,-1.9884356260299685,2.335394859313965,0.2687727808952331,-0.0733016654849052,-0.1539334952831268,#
9.18126106262207,-1.969292998313904,2.263610363006592,0.2528907656669616,-0.0500894747674465,-0.1319430023431778,#
9.219545364379885,-1.9884356260299685,2.2061824798583984,0.2333436459302902,-0.0500894747674465,-0.1160609796643257,#
9.38943576812744,-2.014756679534912,2.227717876434326,0.1942494213581085,-0.0598630309104919,-0.0830752253532409,#
9.370293617248535,-2.093719720840454,2.3617160320281982,0.1771456897258758,-0.0537545569241046,-0.0684148892760276,#
9.269794464111328,-2.1439690589904785,2.225324869155884,0.1563768982887268,-0.031764056533575,-0.0305423624813556,#
9.269794464111328,-2.1439690589904785,2.225324869155884,0.1539334952831268,-0.0024433890357613,0.0122169442474842,#
9.262616157531738,-2.053041696548462,2.1583259105682373,0.1539334952831268,0.0024433890357613,0.031764056533575,#
9.399007797241213,-2.057827472686768,2.1200408935546875,0.1478250324726104,0.0024433890357613,0.0708582773804664,#
9.439685821533203,-2.03629207611084,2.25403904914856,0.130721315741539,0.007330167107284,0.1099525094032287,#
9.487542152404783,-2.0123636722564697,2.344966173171997,0.1221694499254226,0.0085518611595034,0.1246128380298614,#
9.487542152404783,-2.0123636722564697,2.344966173171997,0.1172826737165451,0.0061084721237421,0.1417165547609329,#
9.473184585571287,-1.9142580032348635,2.3066811561584477,0.1197260618209838,0.0097735561430454,0.1514901220798492,#
9.442078590393066,-1.813759446144104,2.210968255996704,0.1160609796643257,0.0219905003905296,0.1685938388109207,#
9.523433685302734,-1.6893328428268433,2.1822540760040283,0.0891837030649185,0.040315918624401,0.1918060332536697,#
9.521041870117188,-1.5314064025878906,2.297109842300415,0.0635281130671501,0.0488677769899368,0.2076880484819412,#
9.59043312072754,-1.574477195739746,2.3497519493103027,-0.0134386392310261,0.0720799788832664,0.2467822879552841,#
9.59043312072754,-1.574477195739746,2.3497519493103027,-0.1123958900570869,0.0952921733260154,0.2919849753379822,#
9.521041870117188,-1.5792629718780518,2.2947168350219727,-0.1575985848903656,0.1062874197959899,0.3127537965774536,#
9.40379238128662,-1.5314064025878906,2.311466693878174,-0.2162399291992187,0.1368297785520553,0.3469612300395965,#
9.45164966583252,-1.5074783563613892,2.3712873458862305,-0.2284568697214126,0.152711808681488,0.3689517080783844,#
9.497113227844238,-1.497907042503357,2.359323024749756,-0.2296785563230514,0.1563768982887268,0.3713951408863067,#
9.497113227844238,-1.497907042503357,2.359323024749756,-0.2162399291992187,0.1478250324726104,0.3689517080783844,#
9.547362327575684,-1.495514154434204,2.366501569747925,-0.2040229737758636,0.1417165547609329,0.3640649616718292,#
9.351150512695312,-1.4141581058502195,2.380858421325684,-0.178367406129837,0.1429382413625717,0.3469612300395965,#
9.147761344909668,-1.3471590280532837,2.328216552734375,-0.1502684205770492,0.130721315741539,0.3115321099758148,#
8.963513374328613,-1.4213367700576782,2.2755744457244877,-0.130721315741539,0.1209477484226226,0.282211422920227,#
8.963513374328613,-1.4213367700576782,2.2755744457244877,-0.1111741960048675,0.1038440242409706,0.2162399291992187,#
8.975478172302246,-1.380658507347107,2.210968255996704,-0.100178949534893,0.0818535313010215,0.130721315741539,#
8.889336585998535,-1.3663017749786377,2.230110645294189,-0.1014006435871124,0.0659715011715889,0.0781884491443634,#
8.922836303710938,-1.4213367700576782,2.251646041870117,-0.1136175915598869,0.031764056533575,-0.031764056533575,#
8.903693199157715,-1.6654045581817627,2.232503652572632,-0.1246128380298614,0.0171037223190069,-0.0855186134576797,#
9.006584167480469,-1.7802598476409912,2.2923240661621094,-0.1380514800548553,-0.0219905003905296,-0.1918060332536697,#
9.006584167480469,-1.7802598476409912,2.2923240661621094,-0.1404948681592941,-0.0647498071193695,-0.2785463333129883,#
9.147761344909668,-2.148754596710205,2.2133607864379883,-0.1429382413625717,-0.0842969194054603,-0.3151971697807312,#
9.367900848388672,-2.366501569747925,2.3784656524658203,-0.128277912735939,-0.1270562261343002,-0.3628432750701904,#
9.461220741271973,-2.5004994869232178,2.538784980773926,-0.0952921733260154,-0.1612636744976043,-0.3762818872928619,#
9.580862045288086,-2.778067111968994,2.629711866378784,-0.0794101431965828,-0.1734806150197982,-0.3701734542846679,#
9.580862045288086,-2.778067111968994,2.629711866378784,-0.0598630309104919,-0.1832541674375534,-0.3359659910202026,#
9.432506561279297,-2.9240293502807617,2.761317014694214,-0.0500894747674465,-0.1869192570447921,-0.310310423374176,#
9.241080284118652,-2.7972097396850586,2.945564746856689,-0.0244338884949684,-0.1478250324726104,-0.2370087206363678,#
9.09272575378418,-2.6321046352386475,2.9168508052825928,-0.0354291386902332,-0.100178949534893,-0.1429382413625717,#
9.128618240356444,-2.6847469806671143,2.840280532836914,-0.0659715011715889,-0.0867403075098991,-0.0952921733260154,#
9.121439933776855,-2.541177749633789,2.75174617767334,-0.1649287492036819,-0.0329857505857944,-0.003665083553642,#
9.121439933776855,-2.541177749633789,2.75174617767334,-0.2785463333129883,0.0280989725142717,0.0708582773804664,#
9.22433090209961,-2.555534601211548,2.675175428390503,-0.3347443044185638,0.0574196390807628,0.0916270837187767,#
9.42054271697998,-2.541177749633789,2.620140790939331,-0.4153760969638824,0.0977355539798736,0.1185043603181839,#
9.449256896972656,-2.5124638080596924,2.6799612045288086,-0.4337015450000763,0.1160609796643257,0.1209477484226226,#
9.291330337524414,-2.555534601211548,2.569891452789306,-0.4263713657855987,0.1392731666564941,0.1075091138482093,#
9.291330337524414,-2.555534601211548,2.569891452789306,-0.3750602006912231,0.1417165547609329,0.0708582773804664,#
9.023333549499512,-2.6009981632232666,2.4717857837677,-0.3384093642234802,0.1392731666564941,0.0464243926107883,#
8.82951545715332,-2.560320377349853,2.380858421325684,-0.2418954968452453,0.1087308079004287,-0.0048867780715227,#
8.927621841430664,-2.565105676651001,2.3784656524658203,-0.1148392781615257,0.0293206684291362,-0.0549762547016143,#
9.097511291503906,-2.400001049041748,2.4502503871917725,-0.0439810007810592,-0.0146603342145681,-0.0781884491443634,#
9.097511291503906,-2.400001049041748,2.4502503871917725,0.0794101431965828,-0.0757450610399246,-0.1099525094032287,#
9.245866775512695,-2.287538528442383,2.447857618331909,0.1270562261343002,-0.0842969194054603,-0.1148392781615257,#
9.391828536987305,-2.2133607864379883,2.4717857837677,0.2040229737758636,-0.1172826737165451,-0.123391143977642,#
9.410971641540527,-2.1415762901306152,2.538784980773926,0.2577775418758392,-0.129499614238739,-0.1209477484226226,#
9.38943576812744,-2.1200408935546875,2.5459630489349365,0.2773246467113495,-0.123391143977642,-0.1148392781615257,#
9.439685821533203,-1.919043779373169,2.562713146209717,0.3225273489952087,-0.1246128380298614,-0.1148392781615257,#
9.439685821533203,-1.919043779373169,2.562713146209717,0.3628432750701904,-0.1209477484226226,-0.1197260618209838,#
9.322437286376951,-1.940579175949097,2.543570280075073,0.3738385140895843,-0.1148392781615257,-0.123391143977642,#
9.183652877807615,-1.832902193069458,2.531606435775757,0.3579564988613128,-0.0781884491443634,-0.129499614238739,#
9.001798629760742,-1.758724570274353,2.423929214477539,0.310310423374176,-0.0537545569241046,-0.128277912735939,#
8.894121170043945,-1.7874385118484497,2.2612173557281494,0.2675510942935943,-0.0439810007810592,-0.1246128380298614,#
8.894121170043945,-1.7874385118484497,2.2612173557281494,0.1710372269153595,-0.0342074446380138,-0.1160609796643257,#
8.894121170043945,-1.9118653535842896,2.0961124897003174,0.1246128380298614,-0.0366508327424526,-0.1148392781615257,#
9.006584167480469,-1.964507341384888,2.084148406982422,0.0659715011715889,-0.0476460866630077,-0.1258345395326614,#
8.94676399230957,-2.1272192001342773,2.0889341831207275,0.0647498071193695,-0.0635281130671501,-0.152711808681488,#
9.205188751220703,-2.1104695796966557,2.155933380126953,0.0806318372488021,-0.0745233595371246,-0.1673721522092819,#
9.205188751220703,-2.1104695796966557,2.155933380126953,0.1319430023431778,-0.1062874197959899,-0.2028012871742248,#
9.231510162353516,-2.1200408935546875,2.115255117416382,0.1795890927314758,-0.1417165547609329,-0.2296785563230514,#
9.26740264892578,-2.167897224426269,2.0171494483947754,0.1942494213581085,-0.1600419729948043,-0.2382304221391677,#
9.308080673217772,-2.2396819591522217,2.093719720840454,0.2076880484819412,-0.178367406129837,-0.235787034034729,#
9.446864128112791,-2.225324869155884,2.1272192001342773,0.2174616158008575,-0.1856975704431533,-0.2284568697214126,#
9.643074989318848,-2.170289993286133,2.1918253898620605,0.2443388998508453,-0.1979145109653473,-0.1942494213581085,#
9.643074989318848,-2.170289993286133,2.1918253898620605,0.2638860046863556,-0.1832541674375534,-0.129499614238739,#
9.719645500183104,-2.060220241546631,2.0721843242645264,0.2699944972991943,-0.1661504507064819,-0.0867403075098991,#
9.619147300720217,-1.94297194480896,2.0961124897003174,0.2651077210903168,-0.0952921733260154,-0.0048867780715227,#
9.573683738708496,-1.978864312171936,2.12961220741272,0.1905843466520309,-0.0244338884949684,0.0818535313010215,#
9.592825889587402,-2.0243279933929443,2.203789472579956,0.1563768982887268,-0.007330167107284,0.1209477484226226,#
9.592825889587402,-2.0243279933929443,2.203789472579956,0.0891837030649185,0.0354291386902332,0.1954711079597473,#
9.506684303283691,-1.6845470666885376,2.2947168350219727,0.0757450610399246,0.0464243926107883,0.2150182276964187,#
9.69093132019043,-1.8903299570083616,2.2612173557281494,0.0256555844098329,0.0574196390807628,0.2394521236419677,#
9.640682220458984,-1.9334007501602173,2.230110645294189,-0.0109952501952648,0.069636583328247,0.2663294076919555,#
9.461220741271973,-1.921436548233032,2.1655044555664062,-0.0195471122860908,0.0928487852215766,0.2809897363185882,#
9.485149383544922,-1.8664016723632808,2.3234307765960693,-0.0219905003905296,0.129499614238739,0.3029802441596985,#
9.485149383544922,-1.8664016723632808,2.3234307765960693,-0.0122169442474842,0.1258345395326614,0.2993151545524597,#
9.480363845825195,-1.7491532564163208,2.352144718170166,-0.0109952501952648,0.1197260618209838,0.3054236173629761,#
9.609575271606444,-1.801795244216919,2.416750907897949,-0.0024433890357613,0.1075091138482093,0.3090887069702148,#
9.566505432128906,-1.7156537771224976,2.407179594039917,0.0061084721237421,0.1014006435871124,0.310310423374176,#
9.432506561279297,-1.641476273536682,2.395215511322021,0.0122169442474842,0.1087308079004287,0.31641885638237,#
9.432506561279297,-1.641476273536682,2.395215511322021,0.0171037223190069,0.1111741960048675,0.3115321099758148,#
9.4660062789917,-1.5864413976669312,2.273181438446045,0.0146603342145681,0.1075091138482093,0.3127537965774536,#
9.501898765563965,-1.4763716459274292,2.2612173557281494,0.0085518611595034,0.1014006435871124,0.2980934381484985,#
9.499505043029783,-1.576870083808899,2.2157537937164307,-0.0097735561430454,0.1075091138482093,0.282211422920227,#
9.55214786529541,-1.5409778356552124,2.2923240661621094,-0.0268772784620523,0.1111741960048675,0.2773246467113495,#
9.55214786529541,-1.5409778356552124,2.2923240661621094,-0.0378725305199623,0.123391143977642,0.2492256760597229,#
9.446864128112791,-1.5553346872329712,2.2085752487182617,-0.0513111688196659,0.128277912735939,0.2321219593286514,#
9.363115310668944,-1.514656662940979,2.2779672145843506,-0.0916270837187767,0.1258345395326614,0.2040229737758636,#
9.308080673217772,-1.7730815410614014,2.3066811561584477,-0.1123958900570869,0.1258345395326614,0.1698155403137207,#
9.3128662109375,-1.761117458343506,2.431107759475708,-0.1209477484226226,0.1209477484226226,0.1588202863931656,#
9.33440113067627,-1.9118653535842896,2.5004994869232178,-0.1014006435871124,0.1075091138482093,0.1209477484226226,#
9.33440113067627,-1.9118653535842896,2.5004994869232178,-0.0879620015621185,0.100178949534893,0.1014006435871124,#
9.260223388671877,-1.9142580032348635,2.5004994869232178,-0.0965138673782348,0.1038440242409706,0.1014006435871124,#
9.31765079498291,-2.124826431274414,2.763710021972656,-0.1380514800548553,0.1111741960048675,0.1136175915598869,#
9.45164966583252,-2.117647886276245,3.036492109298706,-0.1881409436464309,0.100178949534893,0.130721315741539,#
9.434900283813477,-2.2947168350219727,3.38823676109314,-0.2333436459302902,0.1148392781615257,0.1453816443681717,#
9.434900283813477,-2.2947168350219727,3.38823676109314,-0.3665083348751068,0.1661504507064819,0.1808107793331146,#
9.492327690124512,-2.4813570976257324,3.696911096572876,-0.4385882914066314,0.1954711079597473,0.1954711079597473,#
9.631111145019531,-2.6464619636535645,4.347758769989014,-0.5949652194976807,0.2846547961235046,0.2296785563230514,#
10.01874828338623,-2.9383859634399414,5.283352375030518,-0.7769976854324341,0.3982723951339721,0.2846547961235046,#
10.52363395690918,-2.809173583984375,6.0610198974609375,-0.8270871639251709,0.471574068069458,0.31641885638237,#
10.636096000671388,-3.022134780883789,6.175874710083008,-0.9138274788856506,0.6768187284469604,0.4190412163734436,#
10.636096000671388,-3.022134780883789,6.175874710083008,-1.2192511558532717,1.0140063762664795,0.5790832042694092,#
10.449455261230469,-3.589233875274658,6.726224899291992,-1.4550381898880005,1.2082558870315552,0.6719319820404053,#
11.263016700744627,-4.1036906242370605,7.965706348419189,-1.9632630348205569,1.562547206878662,0.8747332096099854,#
11.595619201660156,-4.529613494873047,8.425127983093262,-2.2210404872894287,1.7286977767944336,0.9907942414283752,#
11.351551055908203,-5.8097734451293945,8.341379165649414,-2.688949584960937,2.1941633224487305,1.2840008735656738,#
11.351551055908203,-5.8097734451293945,8.341379165649414,-3.1458632946014404,2.786684989929199,1.6468441486358645,#
11.155338287353516,-7.36032247543335,8.772088050842285,-3.353551149368286,3.040797472000122,1.8252116441726685,#
10.813164710998535,-8.561518669128418,9.243474006652832,-3.5074849128723145,3.4793858528137207,2.172172784805298,#
10.602598190307615,-9.530611991882324,9.22433090209961,-3.4329614639282227,3.861776351928711,2.4983651638031006,#
9.803394317626951,-8.762516975402832,8.054241180419922,-3.288801670074463,3.9998278617858887,2.637638568878174,#
9.803394317626951,-8.762516975402832,8.054241180419922,-2.9174065589904785,4.297921180725098,2.91374135017395,#
8.372486114501953,-8.6907320022583,7.58524751663208,-2.748812675476074,4.437194347381592,3.026137113571167,#
7.362715244293213,-8.956335067749023,6.192624568939209,-2.5044736862182617,4.586241245269775,3.1715188026428223,#
6.486942291259766,-8.449056625366211,5.063212871551514,-2.235701084136963,4.599679470062256,3.271697998046875,#
5.551348686218262,-8.068597793579102,4.639683246612549,-2.120861768722534,4.591127872467041,3.308348655700684,#
4.618147850036621,-7.53021240234375,4.823930263519287,-2.0548901557922363,4.578911304473877,3.373098611831665,#
4.618147850036621,-7.53021240234375,4.823930263519287,-1.977923393249512,4.520269393920898,3.364546537399292,#
3.646661758422852,-7.125825881958008,4.151546955108643,-1.980366826057434,4.478732109069824,3.330339193344116,#
2.940778970718384,-6.343372344970703,2.3880369663238525,-1.9168386459350584,4.305251598358154,3.231381893157959,#
2.1535403728485107,-6.013163089752197,0.4019941985607147,-1.810551166534424,4.100006580352783,3.0542361736297607,#
1.277767300605774,-6.453442573547363,-1.0504491329193115,-1.761683464050293,4.008379459381104,2.9442837238311768,#
1.277767300605774,-6.453442573547363,-1.0504491329193115,-1.91317355632782,3.811686754226685,2.7207136154174805,#
0.8350951075553894,-6.580262184143066,-1.6677974462509155,-2.020682573318481,3.678522109985352,2.6278648376464844,#
0.1100698411464691,-6.405585765838623,-1.7563319206237793,-2.3358798027038574,3.4060842990875244,2.4226200580596924,#
-0.3278167247772217,-6.56829833984375,-3.050848960876465,-2.7170486450195312,3.059123039245605,2.2283706665039062,#
-1.2083754539489746,-6.400800704956055,-4.759324073791504,-2.858765125274658,2.8245575428009038,2.129413604736328,#
-1.2083754539489746,-6.400800704956055,-4.759324073791504,-3.066452980041504,2.3236629962921143,1.9754799604415891,#
-1.804188132286072,-6.070591449737549,-6.541977405548096,-2.977269411087036,1.767791986465454,1.8056644201278689,#
-1.9669002294540403,-6.27876615524292,-7.508677005767822,-2.9345102310180664,1.494132399559021,1.7274760007858276,#
-1.5553346872329712,-5.938986301422119,-6.592226982116699,-2.7414824962615967,0.95169997215271,1.5772075653076172,#
-1.361515998840332,-5.917449951171875,-6.829115867614746,-2.6107609272003174,0.6829272508621216,1.4721418619155884,left
-1.5672988891601562,-6.015556335449219,-7.621140003204346,-2.2491395473480225,0.1661504507064819,1.2131426334381104,left
-1.5672988891601562,-6.015556335449219,-7.621140003204346,-1.716480731964111,-0.2809897363185882,0.9455915093421936,left
-1.8209381103515625,-5.982056617736816,-8.37727165222168,-1.4745851755142212,-0.4789042472839355,0.813648521900177,left
-1.8400806188583372,-5.953342437744141,-8.061419486999512,-1.1593880653381348,-0.8551861643791199,0.5619794726371765,left
-1.8424735069274905,-5.962913990020752,-7.853243827819824,-1.0702043771743774,-1.1386191844940186,0.3481829464435577,left
-2.1750757694244385,-6.446264266967773,-9.025726318359377,-1.1337324380874634,-1.2546802759170532,0.2516690790653229,left
-2.1750757694244385,-6.446264266967773,-9.025726318359377,-1.4916889667510986,-1.437934398651123,0.0769667476415634,left
-2.117647886276245,-7.192824840545654,-11.138589859008787,-1.7567967176437378,-1.5136795043945312,-0.0122169442474842,left
-1.9334007501602173,-8.109275817871094,-13.043275833129885,-2.354205369949341,-1.6847167015075684,-0.2467822879552841,left
-1.741974949836731,-9.250652313232422,-14.53639793395996,-2.939396858215332,-1.9657063484191892,-0.5033381581306458,left
-0.8327022790908813,-9.339186668395996,-17.97966957092285,-3.1031041145324707,-2.1819465160369877,-0.6450546979904175,left
0.6699903011322021,-11.229516983032228,-20.6093807220459,-3.5539093017578125,-2.719491958618164,-0.9064972996711732,left
0.6699903011322021,-11.229516983032228,-20.6093807220459,-3.963176965713501,-3.639427900314331,-1.189930438995361,left
3.263810157775879,-12.191431045532228,-22.021146774291992,-4.090233325958252,-4.28081750869751,-1.347529053688049,left
5.44845724105835,-15.294922828674316,-22.23410987854004,-4.6766462326049805,-5.779836654663086,-1.6896034479141235,left
8.549554824829102,-18.67119407653809,-19.676179885864254,-4.841575145721436,-7.481657028198242,-2.0866541862487797,left
12.105289459228516,-19.97289085388184,-11.794222831726074,-4.599679470062256,-8.307522773742676,-2.273573398590088,left
12.105289459228516,-19.97289085388184,-11.794222831726074,-3.7701492309570312,-9.662382125854492,-2.4885916709899902,left
13.629517555236816,-19.262222290039062,-3.0005996227264404,-3.2326035499572754,-10.115630149841309,-2.5044736862182617,left
14.641681671142578,-21.473190307617188,3.8500516414642334,-3.216721534729004,-10.478473663330078,-1.996248722076416,left
13.916656494140623,-21.956541061401367,12.323036193847656,-2.317554235458374,-9.652607917785645,-0.9969027042388916,left
11.578868865966797,-18.30509185791016,19.479969024658203,-1.93272066116333,-8.946468353271484,-0.5326588153839111,left
11.578868865966797,-18.30509185791016,19.479969024658203,-1.1752701997756958,-7.225101470947266,0.2394521236419677,left
7.465606689453125,-14.256437301635742,19.106687545776367,-1.1276240348815918,-6.317382335662842,0.5375455617904663,left
4.902893543243408,-11.612367630004885,17.0201473236084,-1.3646327257156372,-4.615561485290527,0.9321528673171996,left
4.275973796844482,-9.477970123291016,16.603796005249023,-1.1777135133743286,-3.5160367488861084,0.9797989726066588,left
3.290131092071533,-7.441678524017334,16.048662185668945,-0.7806627750396729,-3.092108726501465,0.905275583267212,left
0.7537391781806946,-5.927021503448486,12.14357566833496,0.0513111688196659,-2.310224294662476,0.7806627750396729,left
0.7537391781806946,-5.927021503448486,12.14357566833496,0.393385648727417,-1.4892456531524658,0.6878139972686768,left
-1.0169496536254885,-5.759523868560791,9.42772102355957,0.3029802441596985,-1.1080769300460815,0.6047387719154358,left
-3.1657044887542725,-5.639883518218994,6.723831653594971,0.0183254163712263,-0.471574068069458,0.4349232316017151,left
-4.694717884063721,-6.312265872955322,4.814359188079834,-0.1514901220798492,0.0329857505857944,0.287098228931427,left
-5.017749309539795,-6.245267391204834,3.0077781677246094,-0.1075091138482093,0.1930277347564697,0.2309002727270126,left
-5.017749309539795,-6.245267391204834,3.0077781677246094,0.0940704718232154,0.3274141252040863,0.1270562261343002,left
-5.773881435394287,-6.819544315338135,1.5553346872329712,0.1185043603181839,0.3408527672290802,0.1160609796643257,#
-6.573083877563477,-6.527620315551758,0.9619146585464478,-0.0268772784620523,0.3591781854629516,0.100178949534893,#
-6.668797016143799,-6.314659118652344,0.7752745151519775,-0.2467822879552841,0.3408527672290802,0.0342074446380138,#
-6.431907176971436,-6.582655429840088,1.043270707130432,-0.3371876776218414,0.3127537965774536,-0.0122169442474842,#
-6.431907176971436,-6.582655429840088,1.043270707130432,-0.3457395434379577,0.2541124522686004,-0.0977355539798736,#
-6.192624568939209,-6.654439926147461,1.9932212829589844,-0.1612636744976043,0.1869192570447921,-0.1808107793331146,#
-5.967699527740479,-6.075376510620117,2.569891452789306,-0.0427593067288398,0.1539334952831268,-0.2186833024024963,#
-5.630311965942383,-6.10887622833252,2.6608188152313232,0.0500894747674465,0.0940704718232154,-0.2907632887363434,#
-5.206782341003418,-6.709475040435791,2.888136863708496,-0.0158820282667875,0.0647498071193695,-0.3274141252040863,#
-4.529613494873047,-6.656832218170166,3.5054850578308105,-0.1637070626020431,0.0415376126766204,-0.411711037158966,#
-4.529613494873047,-6.656832218170166,3.5054850578308105,-0.1075091138482093,0.0671931952238082,-0.5595360994338989,#
-4.139583110809326,-6.422336101531982,3.749552965164185,-0.0085518611595034,0.0904053896665573,-0.6352811455726624,#
-3.8500516414642334,-5.525027275085449,3.6251261234283447,0.3347443044185638,0.1588202863931656,-0.7660024166107178,#
-3.400200843811035,-5.190032482147217,3.510270833969116,0.5302154421806335,0.2211267054080963,-0.896723747253418,#
-2.447857618331909,-5.252245903015137,3.438485860824585,0.4581354260444641,0.2296785563230514,-0.9675819873809814,#
-2.447857618331909,-5.252245903015137,3.438485860824585,0.2687727808952331,0.2382304221391677,-1.1251806020736694,#
-1.921436548233032,-5.32403039932251,2.8977081775665283,0.2064663618803024,0.2480039745569229,-1.2241379022598269,#
-2.2755744457244877,-5.5274200439453125,1.9764715433120728,0.199136197566986,0.2944283783435821,-1.429382562637329,#
-1.8855443000793457,-5.168497085571289,1.3328022956848145,0.3701734542846679,0.3836120665073395,-1.6492875814437866,#
-0.48574298620224,-4.924428939819336,1.6821542978286743,0.411711037158966,0.3640649616718292,-1.786117434501648,#
0.4522434771060943,-5.130211353302002,2.6009981632232666,0.3799469769001007,0.2455605864524841,-2.1074230670928955,#
0.4522434771060943,-5.130211353302002,2.6009981632232666,0.3225273489952087,0.1319430023431778,-2.392077684402466,#
-0.1339980661869049,-5.649453639984131,2.567498683929444,0.2993151545524597,0.1881409436464309,-2.514247179031372,#
-0.4163511395454407,-6.443871021270752,1.6917256116867063,0.2418954968452453,0.342074453830719,-2.7671380043029785,#
0.6029912829399109,-6.317051887512207,0.882951557636261,0.2382304221391677,0.3494046330451965,-2.905189514160156,#
2.364108800888061,-6.446264266967773,1.4524433612823486,0.1905843466520309,0.2907632887363434,-3.231381893157959,#
2.364108800888061,-6.446264266967773,1.4524433612823486,-0.0891837030649185,0.0342074446380138,-3.5600175857543945,#
2.756531953811645,-7.29093074798584,1.8855443000793457,-0.1637070626020431,0.0097735561430454,-3.735941648483277,#
2.744567632675171,-8.477770805358887,1.950150489807129,-0.4324798583984375,0.2028012871742248,-4.016931533813477,#
3.8356947898864746,-8.999405860900879,1.4572290182113647,-0.5534276366233826,0.2932066619396209,-4.278374195098877,#
5.678168296813965,-9.343972206115724,0.1651047617197036,-0.5839699506759644,0.2528907656669616,-4.400543689727783,#
5.678168296813965,-9.343972206115724,0.1651047617197036,-0.554649293422699,0.100178949534893,-4.533708095550537,#
7.058826446533203,-9.930214881896973,0.0167497582733631,-0.577861487865448,0.0085518611595034,-4.5630292892456055,#
6.922436237335205,-10.449455261230469,-0.2225324809551239,-0.7794410586357117,0.1624853760004043,-4.659543037414551,#
7.042076587677002,-11.13619613647461,0.3661018908023834,-1.1545013189315796,0.5436540246009827,-4.7743821144104,#
8.484949111938477,-11.72722339630127,0.0765703245997428,-1.1019684076309204,0.6255075931549072,-4.875782489776611,#
10.224532127380373,-12.15793228149414,0.246460735797882,-0.712247908115387,0.5057815313339233,-4.925871849060059,#
10.224532127380373,-12.15793228149414,0.246460735797882,-0.6352811455726624,0.3310791850090027,-4.735288143157959,#
10.301101684570312,-11.229516983032228,-0.4570291042327881,-0.6939224600791931,0.365286648273468,-4.668094635009766,#
10.155139923095703,-10.021141052246094,-0.5431707501411438,-1.1337324380874634,0.6743753552436829,-4.484840393066406,#
10.770094871520996,-9.037691116333008,-0.114855483174324,-1.6700563430786133,0.7782194018363953,-4.289369583129883,#
11.42572784423828,-8.554340362548828,0.6604190468788147,-1.7885607481002808,0.7696675062179565,-4.209959030151367,#
11.42572784423828,-8.554340362548828,0.6604190468788147,-1.830098390579224,0.7965447902679443,-3.971728801727295,#
11.686546325683594,-8.140382766723633,1.1676974296569824,-1.8142162561416624,0.8527427315711975,-3.858111143112183,#
12.007183074951172,-7.860422611236572,1.0839486122131348,-1.7726787328720093,0.9956809878349304,-3.6443145275115967,#
12.20100212097168,-8.207381248474121,0.1339980661869049,-1.6541743278503418,1.0983033180236816,-3.476942539215088,#
12.681960105895996,-8.559126853942871,-0.8709874749183655,-1.5845377445220947,1.132510781288147,-3.397532224655152,#
12.681960105895996,-8.559126853942871,-0.8709874749183655,-1.6016414165496826,1.192373752593994,-3.1837358474731445,#
12.363714218139648,-8.45862865447998,-1.3016955852508545,-1.7042638063430786,1.3621894121170044,-3.037132501602173,#
11.74158000946045,-7.999206066131592,-0.8925228118896484,-1.7128156423568726,1.433047652244568,-2.962609052658081,#
11.502297401428224,-7.23589563369751,-0.1603191047906875,-1.6346272230148315,1.4342693090438845,-2.7940151691436768,#
11.227123260498049,-6.728617191314697,0.4067798554897308,-1.595533013343811,1.3963968753814695,-2.681619167327881,#
10.789237022399902,-5.898308277130127,0.3756731450557709,-1.5405566692352295,1.3316470384597778,-2.3932995796203613,#
10.789237022399902,-5.898308277130127,0.3756731450557709,-1.5979763269424438,1.268118977546692,-2.021904230117798,#
10.432705879211426,-5.606383323669434,0.12921242415905,-1.6309621334075928,1.2241379022598269,-1.8325417041778564,#
10.1336030960083,-5.572883605957031,-0.1411765366792678,-1.682273268699646,1.09219491481781,-1.485580563545227,#
9.7005033493042,-5.615954875946045,-0.1890329867601394,-1.7128156423568726,0.966360330581665,-1.1862653493881226,#
9.257830619812012,-5.5345988273620605,-0.2799602448940277,-1.698155403137207,0.9089407324790956,-1.060430884361267,#
9.257830619812012,-5.5345988273620605,-0.2799602448940277,-1.6321837902069092,0.7941014170646667,-0.8441908955574036,#
8.858229637145996,-5.443671703338623,-0.0933200791478157,-1.5845377445220947,0.7403469085693359,-0.7440119385719299,#
8.654839515686035,-5.257031440734863,0.0598205626010894,-1.392731785774231,0.6181774139404297,-0.5705313086509705,#
8.669197082519531,-5.170889854431152,0.1866401582956314,-1.1398409605026243,0.448361873626709,-0.4056025743484497,#
8.760124206542969,-4.756931304931641,0.3613162040710449,-0.9761338829994202,0.3542913794517517,-0.3310791850090027,#
8.831908226013184,-4.668396949768066,0.4474578499794006,-0.6291726231575012,0.1771456897258758,-0.1966928243637085,#
8.831908226013184,-4.668396949768066,0.4474578499794006,-0.3213056325912475,0.0207688063383102,-0.0745233595371246,#
8.997013092041016,-4.527220726013184,0.6364907622337341,-0.1624853760004043,-0.0488677769899368,-0.031764056533575,#
9.26740264892578,-4.508078098297119,0.7680960297584534,0.1111741960048675,-0.1808107793331146,0.0476460866630077,#
9.29611587524414,-4.3142595291137695,0.8111668825149536,0.2137965410947799,-0.2418954968452453,0.1197260618209838,#
9.066404342651367,-3.969692707061768,0.8685945868492126,0.3799469769001007,-0.3396310806274414,0.155155211687088,#
9.066404342651367,-3.969692707061768,0.8685945868492126,0.4251496791839599,-0.3872771561145782,0.2394521236419677,#
8.970691680908203,-3.783052444458008,1.1724830865859983,0.42270627617836,-0.4080459475517273,0.2761029601097107,#
8.889336585998535,-3.7328033447265625,1.3710873126983645,0.3762818872928619,-0.4642439186573028,0.3396310806274414,#
9.042476654052734,-3.711267709732056,1.495514154434204,0.3323009014129638,-0.5277720093727112,0.3848337531089782,#
9.250652313232422,-3.677768468856812,1.8233308792114256,0.3151971697807312,-0.5595360994338989,0.4068242609500885,#
9.250652313232422,-3.677768468856812,1.8233308792114256,0.2651077210903168,-0.601073682308197,0.4618005454540252,#
9.315258979797363,-3.658626079559326,1.782652735710144,0.2309002727270126,-0.605960488319397,0.494786262512207,#
9.250652313232422,-3.5700912475585938,1.7898313999176023,0.1918060332536697,-0.5803048610687256,0.5522059202194214,#
9.1716890335083,-3.517449140548706,1.8544375896453855,0.1856975704431533,-0.5436540246009827,0.6047387719154358,#
9.415757179260254,-3.6299118995666495,1.9094725847244265,0.1979145109653473,-0.5448757410049438,0.6218425035476685,#
9.434900283813477,-3.5461630821228027,1.9286150932312007,0.2638860046863556,-0.5436540246009827,0.6438329815864563,#
9.434900283813477,-3.5461630821228027,1.9286150932312007,0.342074453830719,-0.5118899941444397,0.6743753552436829,#
9.518648147583008,-3.4480574131011963,1.94297194480896,0.3701734542846679,-0.4935645759105682,0.6939224600791931,#
9.530611991882324,-3.28773832321167,1.8616160154342647,0.4312581717967987,-0.4508052766323089,0.7171346545219421,#
9.521041870117188,-3.232703685760498,1.9621145725250244,0.5106682777404785,-0.4007157981395721,0.726908266544342,#
9.58325481414795,-3.13938307762146,2.1032910346984863,0.5485408306121826,-0.3762818872928619,0.7293516397476196,#
9.58325481414795,-3.13938307762146,2.1032910346984863,0.6193991303443909,-0.3249707520008087,0.7159129977226257,#
9.518648147583008,-2.943171739578247,2.2157537937164307,0.6267292499542236,-0.3042019307613373,0.7098045349121094,#
9.415757179260254,-2.931207656860352,2.203789472579956,0.6157339811325073,-0.2504473626613617,0.6865922808647156,#
9.382257461547852,-2.888136863708496,2.167897224426269,0.5473191142082214,-0.1918060332536697,0.6597149968147278,#
9.300901412963867,-3.086741209030152,2.304288148880005,0.4862344264984131,-0.1649287492036819,0.6474980711936951,#
9.300901412963867,-3.086741209030152,2.304288148880005,0.3701734542846679,-0.1270562261343002,0.6071821451187134,#
9.387042999267578,-3.266202926635742,2.7804601192474365,0.258999228477478,-0.0952921733260154,0.5815265774726868,#
9.74835968017578,-3.476771354675293,2.754138946533203,0.1795890927314758,-0.0745233595371246,0.5827482342720032,#
9.67657470703125,-3.8596229553222656,2.4981069564819336,-0.1062874197959899,0.0256555844098329,0.634059488773346,#
9.80100154876709,-4.515256404876709,2.868994235992432,-0.2748812437057495,0.1099525094032287,0.6743753552436829,#
10.028319358825684,-5.082355499267578,3.10109806060791,-0.5399889945983887,0.2296785563230514,0.7550071477890015,#
10.028319358825684,-5.082355499267578,3.10109806060791,-0.8405258059501648,0.3469612300395965,0.8906152844429016,#
10.305886268615724,-5.45563554763794,3.460021495819092,-0.9871291518211364,0.4275930821895599,0.9675819873809814,#
10.396815299987791,-5.910271644592285,3.433700561523437,-1.2937743663787842,0.6255075931549072,1.178935170173645,#
10.516454696655272,-6.628118515014648,3.1513471603393555,-1.626075267791748,0.836860716342926,1.4452645778656006,#
10.559525489807127,-7.302894115447998,3.1896328926086426,-1.8019993305206297,0.9480348825454712,1.593089580535889,#
10.559525489807127,-7.302894115447998,3.1896328926086426,-2.1623992919921875,1.1593880653381348,1.918060302734375,#
10.466205596923828,-7.970492362976074,3.610769510269165,-2.2576913833618164,1.26567542552948,2.0646636486053467,#
10.571491241455078,-9.506684303283691,3.5437703132629395,-2.263799905776977,1.4635900259017944,2.351761817932129,#
10.535597801208496,-10.423135757446287,4.0079779624938965,-2.2112669944763184,1.6615043878555298,2.713383436203003,#
10.353742599487305,-11.026127815246582,3.192025184631348,-2.203936815261841,1.7482447624206543,2.90030288696289,#
9.528220176696776,-11.593226432800291,3.4408791065216064,-2.091541051864624,1.962041258811951,3.2790281772613525,#
9.528220176696776,-11.593226432800291,3.4408791065216064,-1.747023105621338,2.161177635192871,3.578343152999878,#
9.078369140625,-11.626726150512695,3.976871252059937,-1.4745851755142212,2.195384979248047,3.690739154815674,#
8.417949676513672,-11.3300142288208,4.953143119812012,-1.066539287567139,2.258913278579712,3.848337650299072,#
7.441678524017334,-10.459028244018556,5.364708423614502,-0.9675819873809814,2.3419883251190186,3.953403472900391,#
6.723831653594971,-9.688538551330566,3.696911096572876,-0.7464553117752075,2.548454761505127,4.084124565124512,#
6.723831653594971,-9.688538551330566,3.696911096572876,-0.6597149968147278,2.675510883331299,4.216067790985107,#
5.814558982849121,-9.475577354431152,2.691925525665283,-0.6768187284469604,2.7524778842926025,4.267378807067871,#
4.59421968460083,-9.750752449035645,2.560320377349853,-0.7550071477890015,2.8734254837036133,4.340680599212647,#
3.5054850578308105,-9.518648147583008,3.345165967941284,-1.0347752571105957,2.9064111709594727,4.4017653465271,#
2.548356056213379,-8.877371788024902,3.615554809570313,-1.0592091083526611,2.878312110900879,4.367558002471924,#
2.548356056213379,-8.877371788024902,3.615554809570313,-0.7794410586357117,2.8746471405029297,4.245388507843018,#
1.722832441329956,-8.305487632751465,2.720639228820801,-0.6462763547897339,2.9064111709594727,4.147652626037598,#
0.97148597240448,-7.740781307220459,1.9286150932312007,-0.4642439186573028,2.9296233654022217,4.090233325958252,#
0.2105683833360672,-6.912864685058594,1.007378339767456,-0.310310423374176,2.9491703510284424,3.866662979125977,#
-0.3086740970611572,-6.616154670715332,0.3996013700962066,-0.3897205293178558,2.954057216644287,3.733498334884644,#
-0.8087739944458008,-6.092126369476318,0.397208571434021,-0.5693095922470093,2.928401470184326,3.4146358966827397,#
-0.8087739944458008,-6.092126369476318,0.397208571434021,-0.6939224600791931,2.872203826904297,3.100660562515259,#
-1.509871006011963,-5.359922409057617,-0.4019941985607147,-0.8014315962791443,2.829444408416748,2.930845260620117,#
-1.887937068939209,-5.974878311157227,-1.7563319206237793,-1.1459494829177856,2.648633480072021,2.594879150390625,#
-2.0961124897003174,-6.104090690612793,-2.871387243270874,-1.211920976638794,2.365200519561768,2.2369225025177,#
-2.3401806354522705,-5.462814331054688,-3.2518460750579834,-1.1019684076309204,2.2198188304901123,2.050003290176392,#
-2.3401806354522705,-5.462814331054688,-3.2518460750579834,-0.7660024166107178,1.931498885154724,1.6993770599365234,#
-2.2085752487182617,-5.027320384979248,-3.9840497970581055,-0.6047387719154358,1.7812305688858032,1.51734459400177,#
-2.273181438446045,-5.048855781555176,-5.632704257965088,-0.4618005454540252,1.4513731002807615,1.1972606182098389,#
-2.1822540760040283,-5.819344997406006,-6.374479293823242,-0.5289937257766724,1.1117420196533203,0.9126058220863342,#
-2.1846470832824707,-5.694917678833008,-6.6352972984313965,-0.5803048610687256,0.910162389278412,0.7916580438613892,#
-2.203789472579956,-5.438885688781738,-7.075576305389404,-0.5253286361694336,0.5277720093727112,0.5790832042694092,#
-2.203789472579956,-5.438885688781738,-7.075576305389404,-0.3775035738945007,0.1502684205770492,0.4031591713428497,#
-2.4047868251800537,-4.953143119812012,-7.83410120010376,-0.3225273489952087,-0.031764056533575,0.3225273489952087,left
-2.816352128982544,-4.828716278076172,-8.283952713012695,-0.3628432750701904,-0.3530696928501129,0.1856975704431533,left
-3.084348201751709,-5.120640754699707,-8.212166786193848,-0.5277720093727112,-0.63283771276474,0.0561979450285434,left
-3.438485860824585,-5.682953834533691,-8.71466064453125,-0.5937435030937195,-0.7550071477890015,-0.0244338884949684,left
-3.438485860824585,-5.682953834533691,-8.71466064453125,-0.7024743556976318,-0.9724688529968262,-0.1856975704431533,left
-3.7710886001586914,-6.221338748931885,-9.647860527038574,-0.7769976854324341,-1.068982720375061,-0.2626643180847168,left
-3.7256247997283936,-6.57547664642334,-10.459028244018556,-1.0702043771743774,-1.2106993198394775,-0.3982723951339721,left
-3.9553356170654297,-7.137789726257324,-12.141182899475098,-1.4990191459655762,-1.3389772176742554,-0.5192201733589172,left
-5.247459888458252,-8.085347175598145,-15.452848434448242,-1.770235300064087,-1.4037269353866575,-0.5876350998878479,left
-5.247459888458252,-8.085347175598145,-15.452848434448242,-2.549676418304444,-1.5662122964859009,-0.6426112651824951,left
-4.450649738311768,-9.667003631591797,-17.316856384277344,-2.9552788734436035,-1.7763437032699585,-0.680483877658844,left
-3.328416109085083,-11.667403221130373,-19.185651779174805,-3.4378480911254883,-2.343209981918335,-0.8209787011146545,left
-1.8305093050003047,-12.715458869934082,-21.48276138305664,-3.32300877571106,-3.118986129760742,-0.9956809878349304,left
0.5766702890396118,-14.78285789489746,-21.63590240478516,-3.308348655700684,-3.60399866104126,-1.0726476907730105,left
3.818945169448853,-17.082361221313477,-18.68076705932617,-3.5331404209136963,-4.784155368804932,-1.2155860662460327,left
3.818945169448853,-17.082361221313477,-18.68076705932617,-3.914309024810791,-6.0828166007995605,-1.29499614238739,left
6.197411060333252,-18.853050231933597,-13.773086547851562,-3.9509599208831783,-6.647239685058594,-1.3438639640808103,left
8.221738815307617,-18.544376373291016,-7.963313579559326,-3.465947151184082,-7.495095729827881,-1.3951750993728638,left
10.147960662841797,-18.611373901367188,-0.760917603969574,-2.7292654514312744,-7.984994888305664,-1.288887619972229,left
10.913663864135742,-18.443878173828125,7.034898281097412,-2.3163328170776367,-8.021645545959473,-1.1227372884750366,left
10.913663864135742,-18.443878173828125,7.034898281097412,-1.6138584613800049,-7.719887733459473,-0.6413896083831787,left
9.865608215332031,-16.493724822998047,11.609975814819336,-1.3866231441497805,-7.317949771881103,-0.3738385140895843,left
7.704888820648193,-13.75633716583252,14.045868873596191,-1.2693406343460083,-6.323490619659424,0.0916270837187767,left
7.010970115661621,-12.79920768737793,15.59402561187744,-1.381736397743225,-5.120121479034424,0.4251496791839599,left
5.422136306762695,-10.25324535369873,16.62772560119629,-1.452594757080078,-4.5752458572387695,0.5045598149299622,left
5.422136306762695,-10.25324535369873,16.62772560119629,-1.385401487350464,-3.485494375228882,0.5888567566871643,left
3.194417953491211,-8.47298526763916,15.19442367553711,-1.3487507104873655,-2.56067156791687,0.6120689511299133,left
0.8470591902732849,-7.39142894744873,13.45962619781494,-1.266897201538086,-2.208823680877685,0.5864133238792419,left
-0.0167497582733631,-6.625725746154785,12.29671573638916,-0.9272661209106444,-1.6834949254989624,0.4752391576766968,left
-1.031306505203247,-6.379265785217285,10.884950637817385,-0.767224133014679,-1.483137130737305,0.4141544103622436,left
-2.909672498703003,-5.4795637130737305,7.788637638092041,-0.4752391576766968,-1.0726476907730105,0.2968717515468597,left
-2.909672498703003,-5.4795637130737305,7.788637638092041,-0.1881409436464309,-0.5937435030937195,0.1710372269153595,left
-4.654040336608887,-5.974878311157227,5.285745620727539,-0.1808107793331146,-0.3555130958557129,0.1087308079004287,left
-5.532205581665039,-6.582655429840088,3.483949899673462,-0.1893626451492309,0.0012216945178806,-0.0268772784620523,left
-6.02512788772583,-7.716853141784668,2.1918253898620605,-0.1771456897258758,0.2284568697214126,-0.0916270837187767,left
-6.195017814636231,-7.841279983520508,0.6484549045562744,-0.1575985848903656,0.2748812437057495,-0.1050657257437706,#
-6.195017814636231,-7.841279983520508,0.6484549045562744,-0.1148392781615257,0.3396310806274414,-0.1062874197959899,#
-6.661618232727051,-7.549355506896973,0.0406779870390892,-0.1209477484226226,0.3200839459896087,-0.1123958900570869,#
-7.429713726043701,-7.965706348419189,0.0023928226437419,-0.2309002727270126,0.2626643180847168,-0.0867403075098991,#
-7.34357213973999,-8.190631866455078,0.4953142702579498,-0.3139754831790924,0.1368297785520553,-0.0708582773804664,#
-7.073184013366699,-7.843672752380371,0.9116654396057128,-0.287098228931427,0.0623064190149307,-0.0671931952238082,#
-6.183053970336914,-7.762316703796387,1.56969153881073,-0.152711808681488,-0.0671931952238082,-0.0855186134576797,#
-6.183053970336914,-7.762316703796387,1.56969153881073,0.003665083553642,-0.1795890927314758,-0.1270562261343002,#
-5.682953834533691,-7.355536937713623,1.8927226066589355,0.1270562261343002,-0.2199050188064575,-0.1404948681592941,#
-5.816952228546143,-7.192824840545654,2.421536445617676,0.31641885638237,-0.2663294076919555,-0.1429382413625717,#
-5.216352939605713,-6.821937084197998,2.51007080078125,0.3286358118057251,-0.258999228477478,-0.1466033309698104,#
-4.613362312316895,-6.515655517578125,2.723031997680664,0.3090887069702148,-0.2040229737758636,-0.1942494213581085,#
-4.613362312316895,-6.515655517578125,2.723031997680664,0.2089097648859024,-0.1404948681592941,-0.2651077210903168,#
-4.319044589996338,-6.288337707519531,2.7086753845214844,0.1221694499254226,-0.1136175915598869,-0.3042019307613373,#
-4.084547996520996,-5.888736724853516,2.6249265670776367,0.0171037223190069,-0.0769667476415634,-0.3982723951339721,#
-3.598805427551269,-5.592026710510254,2.517249345779419,0.0647498071193695,-0.0733016654849052,-0.5045598149299622,#
-3.2039895057678223,-5.273780822753906,1.8951154947280884,0.1392731666564941,-0.0842969194054603,-0.5680879354476929,#
-3.2039895057678223,-5.273780822753906,1.8951154947280884,0.2443388998508453,-0.1197260618209838,-0.7085827589035034,#
-2.603391170501709,-5.190032482147217,1.5936198234558103,0.2663294076919555,-0.1319430023431778,-0.7818844318389893,#
-2.2013967037200928,-4.977071285247803,1.703689694404602,0.3921639025211334,-0.1856975704431533,-0.9639169573783876,#
-2.3545374870300293,-5.063212871551514,1.8448662757873533,0.4361449182033539,-0.2137965410947799,-1.1520578861236572,#
-1.8664016723632808,-5.5106706619262695,1.8065810203552248,0.3738385140895843,-0.2064663618803024,-1.2510151863098145,#
-1.1629117727279663,-5.706881999969482,1.66301167011261,0.2504473626613617,-0.2284568697214126,-1.4745851755142212,#
-1.1629117727279663,-5.706881999969482,1.66301167011261,0.2724378705024719,-0.2736595571041107,-1.722589135169983,#
-1.246660590171814,-5.917449951171875,1.797009825706482,0.342074453830719,-0.2895416021347046,-1.852088928222656,#
-1.0839486122131348,-6.884150981903076,2.445464611053467,0.3823903799057007,-0.2431172132492065,-2.113531351089477,#
-0.760917603969574,-7.302894115447998,2.3976082801818848,0.3860554695129394,-0.2064663618803024,-2.3884127140045166,#
-0.2440679222345352,-7.401000499725342,2.249253273010254,0.3799469769001007,-0.1685938388109207,-2.522799253463745,#
-0.2440679222345352,-7.401000499725342,2.249253273010254,0.3213056325912475,-0.1417165547609329,-2.774468183517456,#
0.1531406491994857,-7.740781307220459,2.1894328594207764,0.2370087206363678,-0.1429382413625717,-2.8966376781463623,#
0.4043869972229004,-8.575876235961914,1.964507341384888,-0.0378725305199623,-0.0769667476415634,-3.123872995376587,#
1.3399806022644043,-9.245866775512695,1.7922240495681765,-0.2150182276964187,-0.0048867780715227,-3.3376693725585938,#
2.0027925968170166,-9.40379238128662,1.3471590280532837,-0.2284568697214126,-0.0207688063383102,-3.442734956741333,#
2.0027925968170166,-9.40379238128662,1.3471590280532837,-0.2321219593286514,-0.0268772784620523,-3.6149940490722656,#
2.230110645294189,-9.219545364379885,1.06480610370636,-0.4129327237606048,0.0109952501952648,-3.740828514099121,#
2.53399920463562,-10.02592658996582,2.3545374870300293,-0.5485408306121826,0.0525328628718853,-3.7970263957977295,#
3.218346357345581,-10.542776107788086,2.4813570976257324,-0.546097457408905,0.1099525094032287,-3.9729504585266113,#
4.512863159179688,-10.872984886169434,1.7443678379058838,-0.445918470621109,0.1014006435871124,-4.027926921844482,#
5.831308364868164,-10.576275825500488,1.5050854682922363,-0.1954711079597473,-0.0305423624813556,-4.029148578643799,#
5.831308364868164,-10.576275825500488,1.5050854682922363,-0.2089097648859024,-0.175924003124237,-3.971728801727295,#
6.494120597839356,-9.851251602172852,0.9188438653945924,-0.3958290219306946,-0.1404948681592941,-3.926526069641113,#
6.8554368019104,-9.631111145019531,0.2249253392219543,-0.873511552810669,0.0549762547016143,-3.9045355319976807,#
7.905886173248291,-10.16231918334961,-0.2727817595005035,-1.220472812652588,0.2247917801141739,-3.933856010437012,#
9.1716890335083,-10.899307250976562,-0.3445664942264557,-1.2778924703598022,0.2516690790653229,-3.9472949504852295,#
9.1716890335083,-10.899307250976562,-0.3445664942264557,-1.227802872657776,0.3188622593879699,-3.938743114471436,#
9.827322006225586,-10.459028244018556,0.1746760606765747,-1.1935955286026,0.3726168274879455,-3.916752576828003,#
9.822537422180176,-9.757929801940918,0.2967100143432617,-1.4306042194366455,0.5827482342720032,-3.781144380569458,#
10.14556884765625,-8.805586814880371,0.4091726541519165,-1.7604618072509766,0.8258654475212097,-3.656531572341919,#
10.53799057006836,-8.140382766723633,0.4283152520656585,-1.875301003456116,0.8845068216323853,-3.5881166458129883,#
10.798808097839355,-7.896315097808838,0.3684946894645691,-1.918060302734375,0.96147358417511,-3.4867160320281982,#
10.798808097839355,-7.896315097808838,0.3684946894645691,-1.8655275106430051,1.0628741979599,-3.3401126861572266,#
10.872984886169434,-8.281558990478516,0.4043869972229004,-1.847202181816101,1.123958945274353,-3.2790281772613525,#
11.124231338500977,-8.58066177368164,0.1124626696109771,-1.859418988227844,1.192373752593994,-3.1336464881896973,#
11.361122131347656,-8.2695951461792,0.1004985496401786,-1.863084077835083,1.2106993198394775,-3.075005054473877,#
11.296515464782717,-7.77188777923584,-0.0526420958340168,-1.894848108291626,1.237576603889465,-2.9064111709594727,#
11.296515464782717,-7.77188777923584,-0.0526420958340168,-1.7604618072509766,1.3084348440170288,-2.7671380043029785,#
11.174481391906738,-7.178467750549316,0.0047856452874839,-1.6847167015075684,1.320651650428772,-2.679175853729248,#
11.018948554992676,-6.798008918762207,0.0717846825718879,-1.571099042892456,1.3059914112091064,-2.494700193405152,#
10.779664993286133,-6.451050281524658,0.0119641125202178,-1.4794719219207764,1.281557559967041,-2.279681921005249,#
10.418350219726562,-6.096912384033203,-0.0143569353967905,-1.4306042194366455,1.268118977546692,-2.161177635192871,#
10.418350219726562,-6.096912384033203,-0.0143569353967905,-1.3560807704925537,1.2314679622650146,-1.9205037355422971,#
10.212566375732422,-5.8097734451293945,-0.2105683833360672,-1.3169866800308228,1.2058125734329224,-1.8056644201278689,#
9.80817985534668,-5.489135265350342,-0.1794617027044296,-1.2620103359222412,1.1520578861236572,-1.5857594013214111,#
9.66939640045166,-5.407779216766357,-0.1746760606765747,-1.2717839479446411,1.0787562131881714,-1.3646327257156372,#
9.293723106384276,-5.2115678787231445,-0.0311066936701536,-1.2644537687301636,1.0274450778961182,-1.2620103359222412,#
9.06879711151123,-5.175675392150879,0.0861416235566139,-1.2314679622650146,0.9236010909080504,-1.0628741979599,#
9.06879711151123,-5.175675392150879,0.0861416235566139,-1.1496145725250244,0.7183563709259033,-0.7574505805969238,#
9.018548011779783,-5.103890895843506,0.229710966348648,-0.9822423458099364,0.5363238453865051,-0.5705313086509705,#
9.097511291503906,-5.003392219543457,0.4977070987224579,-0.7696675062179565,0.3567348122596741,-0.3848337531089782,#
9.107083320617676,-4.6061835289001465,0.4450649619102478,-0.680483877658844,0.2773246467113495,-0.2907632887363434,#
9.083154678344728,-4.398008346557617,0.3661018908023834,-0.52655029296875,0.152711808681488,-0.1062874197959899,#
9.083154678344728,-4.398008346557617,0.3661018908023834,-0.4471401870250702,0.0977355539798736,-0.0305423624813556,#
9.042476654052734,-4.247260093688965,0.4450649619102478,-0.2980934381484985,-0.0109952501952648,0.1026223376393318,#
9.109475135803224,-4.187439441680908,0.5168496966362,-0.1710372269153595,-0.1038440242409706,0.200357899069786,#
9.016156196594238,-3.91705060005188,0.6125625967979431,-0.123391143977642,-0.1343863904476165,0.2431172132492065,#
8.793622970581055,-3.79262375831604,0.7800601720809937,-0.0928487852215766,-0.1808107793331146,0.3261924386024475,#
8.793622970581055,-3.79262375831604,0.7800601720809937,-0.1111741960048675,-0.2504473626613617,0.3921639025211334,#
8.805586814880371,-3.641876220703125,0.9762716889381408,-0.1404948681592941,-0.2834331095218658,0.4202629029750824,#
8.798408508300781,-3.579662799835205,1.1509476900100708,-0.1832541674375534,-0.3347443044185638,0.4581354260444641,#
8.901299476623535,-3.680161237716675,1.3208380937576294,-0.1844758540391922,-0.3591781854629516,0.471574068069458,#
9.09511947631836,-3.598805427551269,1.4404792785644531,-0.1966928243637085,-0.4275930821895599,0.5033381581306458,#
9.250652313232422,-3.4743783473968506,1.4500504732131958,-0.258999228477478,-0.4373666048049927,0.546097457408905,#
9.250652313232422,-3.4743783473968506,1.4500504732131958,-0.2846547961235046,-0.4178195297718048,0.5668662190437317,#
8.941977500915527,-3.522234916687012,1.4835500717163086,-0.2736595571041107,-0.4190412163734436,0.5888567566871643,#
9.08554744720459,-3.646661758422852,1.7347965240478516,-0.1966928243637085,-0.4898994863033294,0.5790832042694092,#
9.293723106384276,-3.7256247997283936,1.94297194480896,-0.1368297785520553,-0.5118899941444397,0.5754181146621704,#
9.375079154968262,-3.620340585708618,2.0673987865448,0.0061084721237421,-0.5057815313339233,0.5790832042694092,#
9.375079154968262,-3.620340585708618,2.0673987865448,0.0855186134576797,-0.4972296357154846,0.5839699506759644,#
9.363115310668944,-3.5437703132629395,2.2085752487182617,0.2443388998508453,-0.5070031881332397,0.5827482342720032,#
9.588040351867676,-3.524627923965454,2.2085752487182617,0.3762818872928619,-0.5045598149299622,0.574196457862854,#
9.561718940734863,-3.462414264678955,2.139183282852173,0.4373666048049927,-0.4825693070888519,0.5693095922470093,#
9.413363456726074,-3.3332018852233887,2.091326951980591,0.5326588153839111,-0.4251496791839599,0.5595360994338989,#
9.525827407836914,-3.1274189949035645,2.124826431274414,0.5705313086509705,-0.3909422159194946,0.5424323678016663,#
9.525827407836914,-3.1274189949035645,2.124826431274414,0.5705313086509705,-0.3689517080783844,0.5326588153839111,#
9.566505432128906,-3.060420036315918,2.033899307250977,0.5436540246009827,-0.3054236173629761,0.5106682777404785,#
9.408578872680664,-2.8809585571289062,1.919043779373169,0.5118899941444397,-0.2626643180847168,0.5045598149299622,#
9.370293617248535,-2.7349963188171387,2.050648927688598,0.4556920528411865,-0.1930277347564697,0.4703523814678192,#
9.418149948120115,-2.7254250049591064,1.938186287879944,0.3750602006912231,-0.1356080919504165,0.4239279925823211,#
9.418149948120115,-2.7254250049591064,1.938186287879944,0.3286358118057251,-0.0891837030649185,0.3994940817356109,#
9.274580955505373,-2.763710021972656,1.8065810203552248,0.2382304221391677,0.0048867780715227,0.3457395434379577,#
9.05683422088623,-2.806780815124512,1.65583336353302,0.1417165547609329,0.0586413368582725,0.2773246467113495,#
9.04726219177246,-2.931207656860352,1.5672988891601562,0.0977355539798736,0.0769667476415634,0.2370087206363678,#
9.059226989746094,-3.2614171504974365,1.6941183805465698,-0.0134386392310261,0.1050657257437706,0.1722589135169983,#
9.059226989746094,-3.2614171504974365,1.6941183805465698,-0.0867403075098991,0.1209477484226226,0.1563768982887268,#
9.20279598236084,-3.4743783473968506,1.8376877307891848,-0.235787034034729,0.1478250324726104,0.1356080919504165,#
9.12383270263672,-3.7663028240203857,2.462214469909668,-0.4190412163734436,0.1795890927314758,0.178367406129837,#
9.245866775512695,-4.374079704284668,2.426322221755981,-0.5241069197654724,0.2162399291992187,0.2162399291992187,#
9.585646629333496,-5.161318302154541,2.7349963188171387,-0.7207997441291809,0.3359659910202026,0.3445178270339966,#
9.722038269042969,-5.857630252838135,2.9240293502807617,-0.9724688529968262,0.5338804721832275,0.5277720093727112,#
9.722038269042969,-5.857630252838135,2.9240293502807617,-1.115407109260559,0.6193991303443909,0.6743753552436829,#
9.90389347076416,-7.2335028648376465,3.1441688537597656,-1.3414205312728882,0.7647807598114014,0.939483106136322,#
10.131211280822754,-8.030312538146973,3.9864425659179688,-1.437934398651123,0.9590301513671876,1.2326897382736206,#
10.384849548339844,-8.817551612854004,4.989035129547119,-1.5295615196228027,1.0628741979599,1.401283621788025,#
10.382457733154297,-9.231510162353516,5.266602516174316,-1.7030421495437622,1.3670761585235596,1.7604618072509766,#
10.382457733154297,-9.231510162353516,5.266602516174316,-1.716480731964111,1.5539953708648682,1.9754799604415891,#
9.738788604736328,-10.202995300292969,4.493720531463623,-1.7238109111785889,1.8019993305206297,2.4055163860321045,#
9.511469841003418,-11.46640682220459,4.453042984008789,-1.5918679237365725,1.885074615478516,2.71094012260437,#
9.76989459991455,-11.839686393737791,5.053641319274902,-1.485580563545227,1.935163974761963,2.848991632461548,#
9.789037704467772,-11.703295707702637,4.9363932609558105,-1.3011046648025513,2.1306352615356445,3.1397547721862797,#
9.789037704467772,-11.703295707702637,4.9363932609558105,-1.225359559059143,2.3676440715789795,3.451286792755127,#
9.355937004089355,-10.85145092010498,4.412364959716797,-1.2461284399032593,2.50813889503479,3.6027772426605225,#
8.46341323852539,-10.703095436096191,3.404986619949341,-1.4208307266235352,2.7036099433898926,3.867884635925293,#
7.542177200317383,-11.34676456451416,3.414557933807373,-1.5222313404083252,2.713383436203003,3.979058980941773,#
7.39142894744873,-11.11705493927002,3.476771354675293,-1.7311410903930664,2.6657373905181885,4.117110252380371,#
6.592226982116699,-10.564311981201172,3.263810157775879,-1.7030421495437622,2.679175853729248,4.154983043670654,#
6.592226982116699,-10.564311981201172,3.263810157775879,-1.58942449092865,2.687727928161621,4.175751686096191,#
5.381458282470703,-9.4660062789917,2.7326035499572754,-1.429382562637329,2.6571855545043945,4.1525397300720215,#
4.529613494873047,-9.399007797241213,1.7467604875564575,-1.3011046648025513,2.499586820602417,4.095119953155518,#
4.110869407653809,-9.387042999267578,1.2059825658798218,-1.2045906782150269,2.406738042831421,4.040143966674805,#
3.665804386138916,-8.561518669128418,0.5623133182525635,-1.0054545402526855,2.2980072498321533,3.866662979125977,#
3.665804386138916,-8.561518669128418,0.5623133182525635,-0.9810206294059752,2.2674648761749268,3.7701492309570312,#
2.565105676651001,-8.059026718139648,0.3278167247772217,-1.021336555480957,2.1220834255218506,3.5624611377716064,#
1.8161523342132568,-7.34357213973999,0.2416750937700271,-1.100746750831604,1.8924047946929927,3.3376693725585938,#
1.1892328262329102,-6.8482584953308105,-0.1842473447322845,-1.1459494829177856,1.7775654792785645,3.228938341140747,#
0.6269195079803467,-7.109076023101807,-0.552742063999176,-1.241241693496704,1.582094430923462,2.9992599487304688,#
0.0358923412859439,-6.853044033050537,-1.3304094076156616,-1.2827792167663574,1.4110571146011353,2.7842416763305664,#
0.0358923412859439,-6.853044033050537,-1.3304094076156616,-1.2913310527801514,1.3169866800308228,2.6681809425354004,#
-0.4354937374591827,-6.137589931488037,-2.3473589420318604,-1.2840008735656738,1.115407109260559,2.395742893218994,#
-1.1437692642211914,-5.900700569152832,-2.9048867225646973,-1.290109395980835,1.0262233018875122,2.254026174545288,#
-1.1676974296569824,-5.642275810241699,-3.089133977890014,-1.2827792167663574,0.786771297454834,1.9864752292633057,#
-1.0887343883514404,-4.934000015258789,-4.101297855377197,-1.1361758708953855,0.5412106513977051,1.7213674783706665,#
-1.0887343883514404,-4.934000015258789,-4.101297855377197,-1.1117420196533203,0.4324798583984375,1.58942449092865,left
-1.835294842720032,-5.015356063842773,-5.288137912750244,-1.1031900644302368,0.1918060332536697,1.3169866800308228,left
-2.2157537937164307,-4.541577339172363,-6.664010524749756,-1.1972606182098389,-0.0965138673782348,1.045770525932312,left
-2.273181438446045,-4.536791324615479,-7.800601959228516,-1.320651650428772,-0.2455605864524841,0.9321528673171996,left
-2.170289993286133,-4.90528678894043,-8.800802230834961,-1.4990191459655762,-0.5632011890411377,0.6927007436752319,left
-2.170289993286133,-4.90528678894043,-8.800802230834961,-1.612636685371399,-0.8869501948356628,0.4666872918605804,left
-1.7706886529922483,-5.010570526123047,-10.301101684570312,-1.7494664192199707,-1.0421053171157837,0.3469612300395965,left
-1.7467604875564575,-6.003591537475586,-12.184252738952637,-2.074437141418457,-1.3573025465011597,0.1502684205770492,left
-2.1200408935546875,-6.577868938446045,-13.899906158447266,-2.19782829284668,-1.5161229372024536,0.0513111688196659,left
-2.912065029144287,-7.008577823638916,-15.383456230163574,-2.588770627975464,-1.9339423179626465,-0.1246128380298614,left
-2.2013967037200928,-8.504091262817383,-17.07757568359375,-3.070118188858032,-2.5618932247161865,-0.3042019307613373,left
-2.2013967037200928,-8.504091262817383,-17.07757568359375,-3.2301602363586426,-2.9699392318725586,-0.4153760969638824,left
-0.2632104754447937,-10.045069694519045,-18.355342864990234,-3.375541925430298,-3.8874318599700928,-0.6865922808647156,left
1.239482045173645,-11.030912399291992,-20.26960182189941,-3.641871213912964,-4.824471473693848,-1.035996913909912,left
2.8139593601226807,-12.454641342163086,-18.819551467895508,-3.850780963897705,-5.346135139465332,-1.2290246486663818,left
5.01296329498291,-15.074783325195312,-15.13938808441162,-4.125662326812744,-6.380910396575928,-1.5564388036727903,left
5.01296329498291,-15.074783325195312,-15.13938808441162,-4.057247161865234,-6.82194185256958,-1.7005987167358398,left
7.393822193145752,-17.505889892578125,-10.234102249145508,-3.371876716613769,-7.526859283447266,-1.8508671522140503,left
8.432307243347168,-17.816957473754883,-4.7712883949279785,-2.476374626159668,-8.04852294921875,-1.6566176414489746,left
11.483156204223633,-19.314865112304688,3.050848960876465,-1.9974703788757324,-8.217117309570312,-1.4819154739379885,left
11.34197998046875,-18.367305755615234,7.798208713531494,-1.2693406343460083,-7.944679260253906,-0.9040539264678956,left
11.34197998046875,-18.367305755615234,7.798208713531494,-1.0885297060012815,-7.142025947570801,-0.3151971697807312,left
9.568897247314451,-15.845272064208984,10.442277908325195,-1.1398409605026243,-6.65457010269165,-0.0879620015621185,left
8.752944946289062,-14.32343578338623,13.78744411468506,-1.2155860662460327,-5.570927143096924,0.1734806150197982,left
6.597012042999268,-12.258429527282717,15.323636054992676,-1.187487006187439,-4.963744640350342,0.2480039745569229,left
4.747360229492188,-10.24367332458496,15.665809631347656,-1.099524974822998,-3.899648904800415,0.3115321099758148,left
2.737389087677002,-8.681159973144531,14.289936065673828,-1.1227372884750366,-2.9955947399139404,0.3029802441596985,left
2.737389087677002,-8.681159973144531,14.289936065673828,-1.1080769300460815,-2.629086494445801,0.2712161839008331,left
1.4404792785644531,-8.456235885620117,13.854442596435549,-0.8710681796073914,-1.9449377059936523,0.175924003124237,left
0.4354937374591827,-7.494320392608643,12.612567901611328,-0.6181774139404297,-1.2840008735656738,0.0830752253532409,left
-1.5170495510101318,-7.458428382873535,10.102496147155762,-0.522885262966156,-0.9736905097961426,0.0561979450285434,left
-2.6081764698028564,-7.264609336853027,8.647661209106445,-0.3897205293178558,-0.4593571126461029,-0.0061084721237421,left
-2.6081764698028564,-7.264609336853027,8.647661209106445,-0.3323009014129638,-0.2467822879552841,-0.0366508327424526,left
-4.175475597381592,-7.898707389831543,6.886543273925781,-0.1637070626020431,0.1478250324726104,-0.0513111688196659,left
-5.879165172576904,-7.908278465270996,4.776073932647705,-0.0537545569241046,0.4080459475517273,-0.0940704718232154,left
-5.852844715118408,-8.810372352600098,3.352344274520874,-0.0097735561430454,0.4703523814678192,-0.1258345395326614,left
-5.771488666534424,-8.767301559448242,2.4717857837677,0.0293206684291362,0.546097457408905,-0.1734806150197982,left
-6.424728870391846,-8.82233715057373,1.935793399810791,-0.0635281130671501,0.6267292499542236,-0.130721315741539,left
-6.424728870391846,-8.82233715057373,1.935793399810791,-0.0708582773804664,0.6426112651824951,-0.1014006435871124,left
-6.355337142944336,-9.315258979797363,1.5242280960083008,0.0989572554826736,0.6193991303443909,-0.0610847249627113,left
-6.08016300201416,-9.298508644104004,1.34476637840271,0.2467822879552841,0.577861487865448,-0.0354291386902332,#
-5.864808082580566,-8.85105037689209,1.2299107313156128,0.2235700935125351,0.5424323678016663,-0.0134386392310261,#
-5.560920238494873,-8.71466064453125,1.6821542978286743,0.0781884491443634,0.4666872918605804,0.0342074446380138,#
-5.027320384979248,-8.425127983093262,1.7850456237792969,0.0488677769899368,0.4178195297718048,0.0476460866630077,#
-5.221138954162598,-8.202595710754395,1.7491532564163208,0.0928487852215766,0.3823903799057007,0.0708582773804664,#
-4.749752521514893,-7.630711555480957,1.7347965240478516,0.2418954968452453,0.3689517080783844,0.0513111688196659,#
-4.826323509216309,-7.243074417114258,1.641476273536682,0.3432961404323578,0.3689517080783844,0.0329857505857944,#
-4.826323509216309,-7.243074417114258,1.641476273536682,0.3982723951339721,0.3823903799057007,0.003665083553642,#
-4.120440483093262,-6.943971633911133,2.1750757694244385,0.3860554695129394,0.365286648273468,-0.0488677769899368,#
-3.814159393310547,-6.702296257019043,2.5866410732269287,0.3506263196468353,0.3616215586662292,-0.0769667476415634,#
-3.768695831298828,-6.625725746154785,2.550748825073242,0.2797680497169494,0.3579564988613128,-0.1514901220798492,#
-3.730410575866699,-6.443871021270752,2.2755744457244877,0.2638860046863556,0.3640649616718292,-0.2040229737758636,#
-3.1728827953338623,-6.283552646636963,2.0554347038269043,0.31641885638237,0.3799469769001007,-0.333522617816925,#
-3.1728827953338623,-6.283552646636963,2.0554347038269043,0.5754181146621704,0.3787252902984619,-0.5008947253227234,#
-2.1990041732788086,-5.608776092529297,2.390429735183716,0.7159129977226257,0.3567348122596741,-0.5827482342720032,#
-2.076970100402832,-6.039484024047852,2.612962245941162,0.7403469085693359,0.2993151545524597,-0.7427902817726135,#
-1.832902193069458,-5.694917678833008,2.400001049041748,0.6988092660903931,0.2651077210903168,-0.891836941242218,#
-1.794616937637329,-5.881557941436768,2.069791555404663,0.6560499668121338,0.2418954968452453,-0.9871291518211364,#
-1.794616937637329,-5.881557941436768,2.069791555404663,0.554649293422699,0.2272351831197738,-1.180156946182251,#
-1.8089739084243772,-5.989234924316406,1.6917256116867063,0.5632011890411377,0.2382304221391677,-1.29499614238739,#
-1.2370892763137815,-6.022734642028809,1.373480200767517,0.5338804721832275,0.2394521236419677,-1.5466653108596802,#
-1.1485549211502075,-6.384050369262695,1.155733346939087,0.4324798583984375,0.1710372269153595,-1.815437912940979,#
-1.3830513954162598,-7.111469268798828,1.5649060010910034,0.4056025743484497,0.1771456897258758,-1.9486026763916016,#
-1.0791629552841189,-7.970492362976074,1.519442439079285,0.4324798583984375,0.2309002727270126,-2.225927352905273,#
-1.0791629552841189,-7.970492362976074,1.519442439079285,0.4886777997016907,0.2528907656669616,-2.4861481189727783,#
-0.0502492748200893,-7.635497093200684,1.447657585144043,0.4764608442783355,0.2382304221391677,-2.611982822418213,#
0.5623133182525635,-7.401000499725342,1.3878371715545654,0.3042019307613373,0.1661504507064819,-2.827000856399536,#
0.3732803165912628,-8.073383331298828,1.2873386144638062,0.1734806150197982,0.1869192570447921,-2.9296233654022217,#
0.2823530733585357,-8.98265552520752,1.5122638940811155,-0.0818535313010215,0.2785463333129883,-3.0969953536987305,#
0.2823530733585357,-8.98265552520752,1.5122638940811155,-0.2443388998508453,0.3970507085323334,-3.238712310791016,#
1.234696388244629,-9.18843936920166,1.5074783563613892,-0.2712161839008331,0.3860554695129394,-3.326673984527588,#
2.452643394470215,-8.963513374328613,1.155733346939087,-0.2626643180847168,0.3323009014129638,-3.4708340167999268,#
3.515056610107422,-9.51386260986328,1.6319050788879397,-0.4776825606822967,0.2541124522686004,-3.5306971073150635,#
3.34995174407959,-10.301101684570312,1.2825528383255005,-0.6927007436752319,0.2761029601097107,-3.529475212097168,#
3.34995174407959,-10.301101684570312,1.2825528383255005,-1.045770525932312,0.5302154421806335,-3.5649044513702397,#
3.2374887466430664,-10.61695384979248,0.3948157429695129,-1.1435059309005735,0.6719319820404053,-3.579565048217773,#
4.378865718841553,-10.475777626037598,-0.5407779216766357,-1.0885297060012815,0.7379034161567688,-3.665083408355713,#
6.1256256103515625,-11.00698471069336,-0.7537391781806946,-1.1300673484802246,0.6169556975364685,-3.7225029468536377,#
7.197610855102539,-11.763115882873535,-0.2656033039093017,-1.2852225303649902,0.5607577562332153,-3.709064483642578,#
7.137789726257324,-11.547762870788574,-0.1794617027044296,-1.4977973699569702,0.6462763547897339,-3.647979736328125,#
7.137789726257324,-11.547762870788574,-0.1794617027044296,-1.51734459400177,0.8588511943817139,-3.500154733657837,#
7.085147857666016,-11.124231338500977,-0.8303093910217285,-1.453816533088684,0.9187142252922058,-3.41097092628479,#
7.791030406951904,-11.511869430541992,-1.2873386144638062,-1.2840008735656738,0.8771765828132629,-3.2558157444000244,#
8.216952323913574,-11.172088623046877,-1.026520848274231,-1.1447278261184692,0.7488986849784851,-3.1165428161621094,#
8.044669151306152,-10.368099212646484,-0.8063812851905823,-1.086086392402649,0.7440119385719299,-3.060344696044922,#
8.044669151306152,-10.368099212646484,-0.8063812851905823,-1.011563062667847,0.8283088207244873,-2.9112977981567383,#
8.286344528198242,-10.078569412231444,-0.7274181246757507,-0.9834640026092528,0.8417474627494812,-2.8245575428009038,#
9.001798629760742,-9.839285850524902,-0.6412764191627502,-1.007897973060608,0.7941014170646667,-2.620534658432007,#
9.111868858337402,-9.602396965026855,-0.8231310248374939,-1.137397527694702,0.8050966858863831,-2.455605745315552,#
8.879764556884766,-9.090332984924316,-0.7920243144035339,-1.2363548278808594,0.8527427315711975,-2.374974012374878,#
8.879764556884766,-9.090332984924316,-0.7920243144035339,-1.4391560554504397,0.9626952409744264,-2.225927352905273,#
8.57348346710205,-8.738588333129883,-0.638883650302887,-1.58942449092865,1.0017894506454468,-2.057333469390869,#
8.530412673950195,-8.135597229003906,-0.4977070987224579,-1.6150801181793213,1.0030112266540527,-1.9913619756698608,#
8.461020469665527,-7.917850017547607,-0.4570291042327881,-1.580872654914856,0.9944592714309692,-1.8924047946929927,#
8.535198211669922,-7.791030406951904,-0.4235295951366424,-1.5320048332214355,0.9969027042388916,-1.8557538986206052,#
8.50887680053711,-7.355536937713623,-0.4331009089946747,-1.4770286083221436,0.9797989726066588,-1.775122046470642,#
8.50887680053711,-7.355536937713623,-0.4331009089946747,-1.347529053688049,0.9871291518211364,-1.7567967176437378,#
8.475377082824707,-6.821937084197998,-0.4091726541519165,-1.2583452463150024,0.9920158982276917,-1.7482447624206543,#
8.489734649658203,-6.410372257232666,-0.2847459018230438,-1.0714260339736938,0.96147358417511,-1.7262543439865112,#
8.724230766296387,-6.199803352355957,-0.1100698411464691,-0.9223793148994446,0.893058717250824,-1.695711970329285,#
8.865407943725586,-5.941378593444824,0.2488535493612289,-0.8466342687606812,0.8502993583679199,-1.6859383583068848,#
8.865407943725586,-5.941378593444824,0.2488535493612289,-0.660936713218689,0.7611156702041626,-1.6712781190872192,#
9.26740264892578,-5.838487148284912,0.4450649619102478,-0.5680879354476929,0.7110261917114258,-1.659061074256897,#
9.530611991882324,-5.828916072845459,0.4522434771060943,-0.3836120665073395,0.6230642199516296,-1.6285187005996704,#
9.66939640045166,-5.295316696166992,0.397208571434021,-0.1905843466520309,0.5607577562332153,-1.5845377445220947,#
9.83689308166504,-5.149354457855225,0.2727817595005035,-0.1673721522092819,0.5351021885871887,-1.5417784452438354,#
9.856036186218262,-5.036891937255859,0.277567446231842,-0.1123958900570869,0.499673068523407,-1.4452645778656006,#
9.856036186218262,-5.036891937255859,0.277567446231842,-0.0720799788832664,0.4569137394428253,-1.336533784866333,#
9.958927154541016,-4.878964900970459,0.4929214715957641,-0.0500894747674465,0.4312581717967987,-1.266897201538086,#
9.860822677612305,-4.661218643188477,0.6269195079803467,-0.0818535313010215,0.3848337531089782,-1.087308049201965,#
9.72921657562256,-4.204189300537109,0.4522434771060943,-0.1417165547609329,0.3457395434379577,-0.8674030900001526,#
9.69093132019043,-3.854837417602539,0.5431707501411438,-0.200357899069786,0.3274141252040863,-0.7452336549758911,#
9.69093132019043,-3.854837417602539,0.5431707501411438,-0.4508052766323089,0.2980934381484985,-0.4642439186573028,#
9.516255378723145,-3.888336658477783,0.519242525100708,-0.5656445622444153,0.2761029601097107,-0.3396310806274414,#
9.4061861038208,-3.969692707061768,0.6795615553855896,-0.7635590434074402,0.2321219593286514,-0.1062874197959899,#
9.300901412963867,-4.027120590209961,0.7154539823532104,-0.8722898364067078,0.1918060332536697,0.0879620015621185,#
9.274580955505373,-3.902693748474121,0.9284151792526244,-0.9028322100639344,0.1649287492036819,0.1734806150197982,#
9.274580955505373,-3.902693748474121,0.9284151792526244,-0.910162389278412,0.1123958900570869,0.31641885638237,#
9.272188186645508,-3.749552965164185,0.8925228118896484,-0.8979454636573792,0.0928487852215766,0.4300364553928375,#
9.10229778289795,-3.6323046684265137,0.7752745151519775,-0.8527427315711975,0.0623064190149307,0.4740174412727356,#
8.975478172302246,-3.809373617172241,0.763310432434082,-0.7647807598114014,0.0488677769899368,0.5338804721832275,#
9.126225471496582,-3.7184462547302246,0.8446664214134216,-0.7012526392936707,0.0280989725142717,0.546097457408905,#
9.174081802368164,-3.759124279022217,0.8733802437782288,-0.5766398310661316,-0.040315918624401,0.5436540246009827,#
9.174081802368164,-3.759124279022217,0.8733802437782288,-0.4935645759105682,-0.0769667476415634,0.5424323678016663,#
9.04726219177246,-3.672982692718506,0.8566305041313171,-0.4495835602283478,-0.0733016654849052,0.5424323678016663,#
8.963513374328613,-3.5605196952819824,0.882951557636261,-0.3371876776218414,-0.0745233595371246,0.5351021885871887,#
9.054441452026367,-3.4480574131011963,1.0767701864242554,-0.1966928243637085,-0.1148392781615257,0.5082249045372009,#
8.992227554321289,-3.5294132232666016,1.2370892763137815,-0.1404948681592941,-0.1441599577665329,0.4960079491138458,#
8.992227554321289,-3.5294132232666016,1.2370892763137815,-0.0500894747674465,-0.1820324808359146,0.4789042472839355,#
9.006584167480469,-3.4121649265289307,1.2011969089508057,-0.0500894747674465,-0.1856975704431533,0.471574068069458,#
8.999405860900879,-3.5605196952819824,1.2562319040298462,0.0818535313010215,-0.1954711079597473,0.4544703662395477,#
9.020941734313965,-3.677768468856812,1.4811571836471558,0.1343863904476165,-0.2162399291992187,0.4275930821895599,#
9.14297580718994,-3.862015962600708,1.672582983970642,0.1514901220798492,-0.2235700935125351,0.4092676639556885,#
9.219545364379885,-4.00319242477417,1.6869399547576904,0.1575985848903656,-0.2321219593286514,0.3799469769001007,#
9.219545364379885,-4.00319242477417,1.6869399547576904,0.1209477484226226,-0.2186833024024963,0.3750602006912231,#
9.198010444641112,-4.218546390533447,1.7754744291305542,0.0879620015621185,-0.200357899069786,0.3823903799057007,#
9.265008926391602,-4.677968502044678,1.7563319206237793,0.003665083553642,-0.152711808681488,0.42270627617836,#
9.518648147583008,-5.402993679046631,1.9740787744522093,-0.069636583328247,-0.1172826737165451,0.4898994863033294,#
9.803394317626951,-5.793023586273193,2.060220241546631,-0.1014006435871124,-0.0965138673782348,0.5387672781944275,#
9.803394317626951,-5.793023586273193,2.060220241546631,-0.1918060332536697,-0.0171037223190069,0.6707102656364441,#
9.724431037902832,-6.063412666320801,2.0793628692626958,-0.2394521236419677,0.0488677769899368,0.7452336549758911,#
9.76989459991455,-6.503692150115967,2.1056838035583496,-0.3762818872928619,0.1869192570447921,0.9407047629356384,#
9.89432144165039,-7.317252159118652,2.550748825073242,-0.5509842038154602,0.3127537965774536,1.148392915725708,#
10.277173042297363,-8.295915603637695,2.8187451362609863,-0.6584933400154114,0.365286648273468,1.26567542552948,#
10.277173042297363,-8.295915603637695,2.8187451362609863,-0.8063183426856995,0.4972296357154846,1.510014295578003,#
10.286745071411133,-8.951549530029297,2.864208698272705,-0.8441908955574036,0.5839699506759644,1.8019993305206297,#
10.040283203125,-8.889336585998535,2.9168508052825928,-0.8551861643791199,0.7831061482429504,1.9669280052185056,#
9.868000030517578,-9.284152030944824,2.665604591369629,-0.8796200752258301,0.9822423458099364,2.3419883251190186,#
9.60478973388672,-9.89432144165039,2.971885919570923,-0.9810206294059752,1.060430884361267,2.542346239089966,#
9.28175926208496,-10.985447883605955,3.345165967941284,-1.2082558870315552,1.180156946182251,2.8819773197174072,#
9.28175926208496,-10.985447883605955,3.345165967941284,-1.192373752593994,1.2791141271591189,3.1495285034179688,#
9.135796546936035,-11.643473625183104,3.6370904445648193,-1.119072198867798,1.313321590423584,3.2558157444000244,#
9.06401252746582,-11.416156768798828,3.2374887466430664,-0.8710681796073914,1.3670761585235596,3.4598388671875,#
8.45862865447998,-11.140981674194336,2.486142873764038,-0.790436327457428,1.501462459564209,3.6870739459991455,#
7.322037220001221,-11.10030460357666,2.4670000076293945,-0.8441908955574036,1.595533013343811,3.811686754226685,#
7.322037220001221,-11.10030460357666,2.4670000076293945,-0.9639169573783876,1.7311410903930664,3.98638916015625,#
6.539584159851074,-11.96172046661377,3.146562099456787,-0.9700254201889038,1.754353165626526,4.032813549041748,#
6.106483459472656,-11.992826461791992,3.7950167655944815,-0.8820634484291077,1.7030421495437622,4.1122236251831055,#
5.4795637130737305,-11.511869430541992,3.3020951747894287,-0.7757760286331177,1.7604618072509766,4.15986967086792,#
4.938785552978516,-10.796415328979492,2.6057839393615723,-0.7256865501403809,1.770235300064087,4.185525417327881,#
4.376472473144531,-10.090532302856444,2.4023938179016118,-0.5729747414588928,1.7800087928771973,4.200185775756836,#
4.376472473144531,-10.090532302856444,2.4023938179016118,-0.5302154421806335,1.8325417041778564,4.214846134185791,#
3.280559778213501,-9.7005033493042,1.9956141710281368,-0.5534276366233826,1.8728575706481931,4.1965203285217285,#
2.2779672145843506,-9.595218658447266,1.9525433778762815,-0.6316159963607788,1.9498244524002075,4.131770610809326,#
1.8161523342132568,-9.243474006652832,1.9094725847244265,-0.6181774139404297,1.9681499004364011,4.054803848266602,#
1.191625714302063,-8.200202941894531,1.3160523176193235,-0.4813476204872131,1.9437159299850464,3.876436710357666,#
1.191625714302063,-8.200202941894531,1.3160523176193235,-0.3799469769001007,1.9449377059936523,3.666305303573608,#
0.5335994362831116,-7.286144733428955,0.8398807048797607,-0.4092676639556885,1.93272066116333,3.55146598815918,#
-0.1818545311689376,-7.058826446533203,0.4618147313594818,-0.6413896083831787,1.8484238386154173,3.319344043731689,#
-0.607776939868927,-6.879364967346191,0.3493521213531494,-0.8686248064041138,1.7262543439865112,3.0969953536987305,#
-1.1533405780792236,-6.0610198974609375,-0.3158525824546814,-0.873511552810669,1.6627261638641355,2.962609052658081,#
-1.1533405780792236,-6.0610198974609375,-0.3158525824546814,-0.7879929542541504,1.538113355636597,2.6840627193450928,#
-1.7563319206237793,-5.924628734588623,-1.2131611108779907,-0.7843278050422668,1.4672551155090332,2.546011447906494,#
-2.0099709033966064,-5.793023586273193,-1.739582061767578,-0.6939224600791931,1.2937743663787842,2.2576913833618164,#
-2.2205395698547363,-4.977071285247803,-1.9238293170928955,-0.4850127100944519,1.1288456916809082,1.9547111988067627,#
-2.2133607864379883,-4.520041942596436,-2.342573404312134,-0.4092676639556885,1.0518789291381836,1.822768211364746,#
-2.4023938179016118,-4.984249591827393,-3.455235719680786,-0.3897205293178558,0.8551861643791199,1.573542594909668,#
-2.4023938179016118,-4.984249591827393,-3.455235719680786,-0.4703523814678192,0.6670452356338501,1.3389772176742554,left
-2.555534601211548,-4.972285747528076,-4.541577339172363,-0.4642439186573028,0.5790832042694092,1.2106993198394775,left
-2.565105676651001,-4.721039295196533,-4.852644443511963,-0.3542913794517517,0.4129327237606048,0.9358179569244384,left
-2.311466693878174,-4.515256404876709,-5.355136871337891,-0.2761029601097107,0.2272351831197738,0.6829272508621216,left
-2.6703903675079346,-4.086941242218018,-6.022734642028809,-0.235787034034729,0.1246128380298614,0.5693095922470093,left
-2.6703903675079346,-4.086941242218018,-6.022734642028809,-0.3139754831790924,-0.0781884491443634,0.3775035738945007,left
-3.029313325881958,-4.500899314880371,-6.455835819244385,-0.4214845895767212,-0.1942494213581085,0.2944283783435821,left
-3.5676987171173096,-4.603790760040283,-7.171289443969727,-0.6560499668121338,-0.4422534108161926,0.1404948681592941,left
-4.101297855377197,-5.206782341003418,-8.054241180419922,-0.873511552810669,-0.6780403852462769,-0.0342074446380138,left
-4.436293125152588,-5.979663372039795,-8.896513938903809,-0.9541434049606324,-0.7953230738639832,-0.1319430023431778,left
-4.436293125152588,-5.979663372039795,-8.896513938903809,-1.1056334972381592,-0.9846857786178588,-0.3323009014129638,left
-5.498706817626953,-6.427121639251709,-10.315458297729492,-1.4904673099517822,-1.0811996459960938,-0.4911211729049682,left
-6.393621921539307,-7.355536937713623,-11.97607707977295,-1.838650107383728,-1.1251806020736694,-0.5326588153839111,left
-6.424728870391846,-9.035298347473145,-14.359328269958496,-2.713383436203003,-1.2827792167663574,-0.6084038615226746,left
-5.752345561981201,-11.251051902770996,-16.649261474609375,-3.1568586826324463,-1.4025052785873413,-0.6316159963607788,left
-4.8191447257995605,-12.423534393310549,-19.20479393005371,-3.60399866104126,-1.839871883392334,-0.7220214009284973,left
-4.8191447257995605,-12.423534393310549,-19.20479393005371,-3.663861989974976,-2.544789552688598,-0.8148701786994934,left
-3.1968109607696533,-13.854442596435549,-19.50389671325684,-3.641871213912964,-2.9980382919311523,-0.8515210747718811,left
-0.6125625967979431,-14.775679588317873,-17.012968063354492,-3.740828514099121,-4.117110252380371,-0.9309312105178832,left
1.2538390159606934,-15.692131042480469,-13.409377098083496,-3.997384548187256,-5.261837959289551,-0.9969027042388916,left
3.084348201751709,-15.881162643432615,-9.688538551330566,-4.046252250671387,-5.727303981781006,-1.0506572723388672,left
3.084348201751709,-15.881162643432615,-9.688538551330566,-3.69562578201294,-6.422447681427002,-1.1581664085388184,left
5.989234924316406,-16.326229095458984,-3.969692707061768,-3.4378480911254883,-6.682668685913086,-1.2058125734329224,left
7.860422611236572,-16.472190856933594,1.8233308792114256,-2.648633480072021,-6.925785541534424,-1.1459494829177856,left
8.281558990478516,-15.050853729248049,6.594619274139404,-1.9082868099212649,-6.719319820404053,-0.919935941696167,left
7.243074417114258,-13.366307258605955,9.028119087219238,-1.6395140886306765,-6.496971607208252,-0.7721109390258789,left
5.498706817626953,-12.868599891662598,10.750951766967772,-1.5466653108596802,-5.853137969970703,-0.4727957546710968,left
5.498706817626953,-12.868599891662598,10.750951766967772,-1.6871600151062012,-5.105461120605469,-0.2247917801141739,left
4.677968502044678,-11.461621284484863,13.409377098083496,-1.6285187005996704,-4.7255144119262695,-0.1453816443681717,left
3.586841106414795,-9.92542839050293,14.100903511047363,-1.2229161262512207,-3.997384548187256,-0.0635281130671501,left
1.7563319206237793,-8.243274688720703,13.708480834960938,-0.998124361038208,-3.6174373626708975,-0.0061084721237421,left
0.3684946894645691,-7.274180889129639,12.727423667907717,-0.7403469085693359,-2.858765125274658,0.0867403075098991,left
0.3684946894645691,-7.274180889129639,12.727423667907717,-0.6694886088371277,-2.190498352050781,0.0806318372488021,left
-1.1748759746551514,-7.515855312347412,11.89472198486328,-0.5851916074752808,-1.877744436264038,0.0623064190149307,left
-2.3856441974639893,-7.104290962219238,10.585847854614258,-0.2406738102436065,-1.3072130680084229,0.0097735561430454,left
-3.366701364517212,-6.675975322723389,8.432307243347168,-0.0354291386902332,-0.7757760286331177,-0.0549762547016143,left
-4.579862117767334,-7.384250640869141,6.570690631866455,-0.0293206684291362,-0.5351021885871887,-0.0745233595371246,left
-4.579862117767334,-7.384250640869141,6.570690631866455,-0.1710372269153595,-0.1123958900570869,-0.1014006435871124,left
-5.204389572143555,-7.728816509246826,4.72582483291626,-0.3591781854629516,0.200357899069786,-0.1563768982887268,left
-5.960521221160889,-8.118846893310547,3.1728827953338623,-0.3946073353290558,0.3115321099758148,-0.1747023165225982,left
-6.5180487632751465,-8.420342445373535,1.739582061767578,-0.3408527672290802,0.448361873626709,-0.1771456897258758,#
-6.460620880126953,-8.250452041625977,1.0480562448501587,-0.2394521236419677,0.494786262512207,-0.1795890927314758,#
-6.491727352142334,-8.171488761901855,0.8327022790908813,0.0525328628718853,0.5192201733589172,-0.2028012871742248,#
-6.491727352142334,-8.171488761901855,0.8327022790908813,0.2455605864524841,0.4642439186573028,-0.2260134816169738,#
-5.852844715118408,-8.097311973571777,1.0719845294952393,0.3042019307613373,0.4153760969638824,-0.2431172132492065,#
-5.278566360473633,-7.9585280418396,1.3998013734817505,0.2724378705024719,0.2895416021347046,-0.2504473626613617,#
-5.041677951812744,-7.630711555480957,1.392622709274292,0.1734806150197982,0.1832541674375534,-0.2443388998508453,#
-4.859822750091553,-7.41535758972168,1.428515076637268,0.1698155403137207,0.1441599577665329,-0.2492256760597229,#
-4.859822750091553,-7.41535758972168,1.428515076637268,0.2040229737758636,0.0818535313010215,-0.2577775418758392,#
-4.453042984008789,-7.345965385437012,1.8783657550811768,0.2455605864524841,0.0733016654849052,-0.258999228477478,#
-3.8979082107543945,-6.943971633911133,2.2779672145843506,0.4642439186573028,0.0635281130671501,-0.3078669905662536,#
-4.00319242477417,-6.668797016143799,2.344966173171997,0.7513421177864075,0.0733016654849052,-0.3787252902984619,#
-3.888336658477783,-6.166304588317871,2.3497519493103027,0.8112051486968994,0.0855186134576797,-0.4178195297718048,#
-3.4815566539764404,-6.010770320892334,2.287538528442383,0.7818844318389893,0.0965138673782348,-0.5118899941444397,#
-3.4815566539764404,-6.010770320892334,2.287538528442383,0.4764608442783355,0.0757450610399246,-0.6218425035476685,#
-3.2470602989196777,-6.082554817199707,1.8400806188583372,0.3628432750701904,0.0525328628718853,-0.6878139972686768,#
-3.488735675811768,-6.525227069854736,1.9334007501602173,0.3127537965774536,0.0415376126766204,-0.8234220743179321,#
-2.914458036422729,-6.451050281524658,1.9453648328781128,0.365286648273468,0.0476460866630077,-0.8942803740501404,#
-2.4598214626312256,-5.9198431968688965,1.8544375896453855,0.5790832042694092,0.0171037223190069,-1.0482138395309448,#
-2.4598214626312256,-5.9198431968688965,1.8544375896453855,0.6633800864219666,0.0207688063383102,-1.1630531549453735,#
-2.620140790939331,-6.005984783172607,1.9334007501602173,0.5925218462944031,0.0207688063383102,-1.2290246486663818,#
-2.4957141876220703,-6.618547439575195,2.4670000076293945,0.3432961404323578,0.0574196390807628,-1.381736397743225,#
-1.7802598476409912,-7.051648139953613,2.617748022079468,0.2455605864524841,0.0488677769899368,-1.5637688636779783,#
-1.6127625703811646,-6.939186096191406,2.368894338607788,0.2712161839008331,0.0659715011715889,-1.645622491836548,#
-1.6127625703811646,-6.939186096191406,2.368894338607788,0.4239279925823211,0.1331647038459777,-1.815437912940979,#
-1.56969153881073,-6.544370174407959,1.7347965240478516,0.4556920528411865,0.1966928243637085,-1.8911830186843872,#
-1.380658507347107,-6.891329765319824,1.5649060010910034,0.2675510942935943,0.2272351831197738,-2.050003290176392,#
-0.5431707501411438,-7.862814903259277,1.6845470666885376,-0.155155211687088,0.2773246467113495,-2.2198188304901123,#
0.6125625967979431,-8.484949111938477,2.203789472579956,-0.2675510942935943,0.2577775418758392,-2.322441339492798,#
0.2225324809551239,-9.138189315795898,2.021935224533081,-0.2467822879552841,0.199136197566986,-2.499586820602417,#
0.2225324809551239,-9.138189315795898,2.021935224533081,-0.0952921733260154,0.3689517080783844,-2.658407211303711,#
-0.1244267746806144,-8.920442581176758,1.1389836072921753,-0.0256555844098329,0.4385882914066314,-2.743925809860229,#
0.5718846321105957,-9.293723106384276,0.9930213689804076,-0.100178949534893,0.4898994863033294,-2.908854484558105,#
2.0793628692626958,-9.753145217895508,1.4045867919921875,-0.2284568697214126,0.4080459475517273,-3.0615663528442383,#
3.005385160446167,-10.00439167022705,1.835294842720032,-0.3054236173629761,0.342074453830719,-3.118986129760742,#
3.005385160446167,-10.00439167022705,1.835294842720032,-0.4043808877468109,0.3347443044185638,-3.2130565643310547,#
2.577069997787476,-10.487741470336914,1.6821542978286743,-0.4740174412727356,0.4068242609500885,-3.2277169227600098,#
2.4909284114837646,-10.600205421447754,1.22033953666687,-0.5363238453865051,0.5534276366233826,-3.263145923614502,#
3.428915023803711,-10.602598190307615,1.1629117727279663,-0.4642439186573028,0.5216635465621948,-3.349886417388916,#
4.869394302368164,-11.162517547607422,1.129412293434143,-0.4349232316017151,0.4471401870250702,-3.3865370750427246,#
4.869394302368164,-11.162517547607422,1.129412293434143,-0.4862344264984131,0.3237490355968475,-3.436626672744751,#
5.654239654541016,-11.162517547607422,1.4739787578582764,-0.6145123243331909,0.3432961404323578,-3.3999757766723637,#
5.565705299377441,-10.85384464263916,1.227518081665039,-0.6927007436752319,0.4385882914066314,-3.346221208572388,#
6.070591449737549,-10.825129508972168,0.7465606331825256,-0.8478559851646423,0.53143709897995,-3.2093913555145264,#
6.7070817947387695,-10.918450355529783,-0.1435693651437759,-0.8991671204566956,0.52655029296875,-3.164188861846924,#
7.319644451141357,-11.06680393218994,-0.5024927258491516,-0.9455915093421936,0.5509842038154602,-3.1312029361724854,#
7.319644451141357,-11.06680393218994,-0.5024927258491516,-1.060430884361267,0.5925218462944031,-3.1055474281311035,#
7.637890338897705,-10.657631874084473,0.3780659735202789,-1.1496145725250244,0.6316159963607788,-3.0652315616607666,#
7.642674922943115,-10.590633392333984,0.7082754969596863,-1.1813786029815674,0.7049177289009094,-2.935731887817383,#
7.896315097808838,-10.140782356262209,0.5742774605751038,-1.1349540948867798,0.6951441764831543,-2.696279764175415,#
8.056633949279785,-9.542576789855955,0.2799602448940277,-1.099524974822998,0.6633800864219666,-2.598544120788574,#
8.056633949279785,-9.542576789855955,0.2799602448940277,-1.087308049201965,0.6291726231575012,-2.4226200580596924,#
8.439485549926758,-9.879963874816896,-0.1076770275831222,-1.0653176307678225,0.6145123243331909,-2.3615353107452397,#
8.721837997436523,-9.236295700073242,-0.1746760606765747,-1.0384403467178345,0.5766398310661316,-2.247917890548706,#
8.642874717712402,-8.420342445373535,-0.0382851622998714,-1.0469921827316284,0.6365028619766235,-2.1562907695770264,#
8.599804878234863,-8.068597793579102,0.064606212079525,-1.0567656755447388,0.6768187284469604,-2.0927627086639404,#
8.71226692199707,-7.917850017547607,-0.0263210479170084,-1.1031900644302368,0.7293516397476196,-1.9571545124053955,#
8.71226692199707,-7.917850017547607,-0.0263210479170084,-1.1520578861236572,0.7647807598114014,-1.871635913848877,#
8.72662353515625,-7.374679565429687,-0.0598205626010894,-1.1826002597808838,0.785549521446228,-1.8447586297988887,#
8.518448829650879,-7.068397998809815,-0.12921242415905,-1.2632319927215576,0.8564078211784363,-1.7983342409133911,#
8.46341323852539,-6.673582077026367,-0.0741775035858154,-1.3157649040222168,0.8881718516349792,-1.7763437032699585,#
8.49452018737793,-6.510870456695557,0.114855483174324,-1.3670761585235596,0.905275583267212,-1.7445796728134155,#
8.49452018737793,-6.510870456695557,0.114855483174324,-1.3145432472229004,0.8881718516349792,-1.738471269607544,#
8.657232284545898,-6.530013084411621,0.1842473447322845,-1.26567542552948,0.8771765828132629,-1.7372496128082275,#
8.82233715057373,-6.123232841491699,0.2847459018230438,-1.1312891244888306,0.833195686340332,-1.7421363592147827,#
8.934800148010254,-5.962913990020752,0.246460735797882,-1.0274450778961182,0.7965447902679443,-1.7482447624206543,#
9.15493869781494,-5.764309883117676,0.236889436841011,-0.9675819873809814,0.7660024166107178,-1.7458014488220217,#
9.15493869781494,-5.764309883117676,0.236889436841011,-0.8270871639251709,0.6951441764831543,-1.72991943359375,#
9.377471923828123,-5.6925249099731445,0.5240281224250793,-0.7525637745857239,0.6621583700180054,-1.7115939855575562,#
9.645467758178713,-5.603990077972412,0.784845769405365,-0.5961868762969971,0.5851916074752808,-1.6541743278503418,#
10.00439167022705,-5.31685209274292,0.7896314859390259,-0.5118899941444397,0.4960079491138458,-1.5466653108596802,#
10.124032974243164,-4.838287353515625,0.4953142702579498,-0.522885262966156,0.4556920528411865,-1.469698429107666,#
9.841679573059082,-4.759324073791504,0.2679961323738098,-0.5851916074752808,0.4202629029750824,-1.2876659631729126,#
9.841679573059082,-4.759324073791504,0.2679961323738098,-0.6719319820404053,0.4373666048049927,-1.0726476907730105,#
9.745966911315918,-4.72582483291626,0.3828516006469726,-0.6878139972686768,0.4275930821895599,-0.971247136592865,#
9.750752449035645,-4.697111129760742,0.6556334495544434,-0.660936713218689,0.3530696928501129,-0.7757760286331177,#
9.76271629333496,-4.500899314880371,0.5718846321105957,-0.6352811455726624,0.2785463333129883,-0.5570926666259766,#
9.475577354431152,-4.366901397705078,0.5455635190010071,-0.6450546979904175,0.2541124522686004,-0.4373666048049927,#
9.475577354431152,-4.366901397705078,0.5455635190010071,-0.6413896083831787,0.2370087206363678,-0.2040229737758636,#
9.3128662109375,-4.3310089111328125,0.6436693072319031,-0.6096255779266357,0.2199050188064575,-0.1038440242409706,#
9.1716890335083,-4.151546955108643,0.8470591902732849,-0.5143333673477173,0.1600419729948043,0.0659715011715889,#
9.04726219177246,-4.137190341949463,1.0528419017791748,-0.4337015450000763,0.100178949534893,0.199136197566986,#
9.231510162353516,-3.6921253204345694,0.9212367534637452,-0.3713951408863067,0.069636583328247,0.2492256760597229,#
9.231510162353516,-3.6921253204345694,0.9212367534637452,-0.2993151545524597,-0.0061084721237421,0.3359659910202026,#
9.166903495788574,-3.395415067672729,0.794417142868042,-0.3836120665073395,-0.0244338884949684,0.4300364553928375,#
8.903693199157715,-3.517449140548706,0.7082754969596863,-0.4129327237606048,-0.0097735561430454,0.4532486498355865,#
8.812766075134277,-3.73758864402771,0.973878800868988,-0.4153760969638824,-0.0293206684291362,0.4666872918605804,#
9.008977890014648,-3.7567315101623535,1.184447169303894,-0.3872771561145782,-0.0635281130671501,0.4556920528411865,#
9.066404342651367,-3.716053485870361,1.1653046607971191,-0.3127537965774536,-0.130721315741539,0.4288147687911987,#
9.066404342651367,-3.716053485870361,1.1653046607971191,-0.2541124522686004,-0.1453816443681717,0.4239279925823211,#
8.841480255126953,-3.510270833969116,1.098305583000183,-0.2394521236419677,-0.1356080919504165,0.4300364553928375,#
8.85105037689209,-3.641876220703125,1.1437692642211914,-0.1942494213581085,-0.1368297785520553,0.4263713657855987,#
9.221939086914062,-3.603590488433838,1.3136597871780396,-0.100178949534893,-0.1979145109653473,0.3897205293178558,#
9.327221870422363,-3.428915023803711,1.239482045173645,-0.0561979450285434,-0.2309002727270126,0.3726168274879455,#
9.327221870422363,-3.428915023803711,1.239482045173645,-0.0109952501952648,-0.2199050188064575,0.3677300214767456,#
9.078369140625,-3.321237564086914,1.1030912399291992,0.003665083553642,-0.1893626451492309,0.3701734542846679,#
9.054441452026367,-3.3236305713653564,1.1676974296569824,0.0280989725142717,-0.1698155403137207,0.3713951408863067,#
9.262616157531738,-3.428915023803711,1.37587308883667,0.0635281130671501,-0.1966928243637085,0.3506263196468353,#
9.363115310668944,-3.5030922889709477,1.3375877141952517,0.0867403075098991,-0.21135313808918,0.3359659910202026,#
9.236295700073242,-3.3020951747894287,1.3663017749786377,0.1356080919504165,-0.21135313808918,0.3127537965774536,#
9.236295700073242,-3.3020951747894287,1.3663017749786377,0.1795890927314758,-0.1685938388109207,0.3054236173629761,#
9.037691116333008,-3.321237564086914,1.4021940231323242,0.1979145109653473,-0.1539334952831268,0.2980934381484985,#
9.080761909484863,-3.5126638412475586,1.3974084854125977,0.2186833024024963,-0.1417165547609329,0.2699944972991943,#
9.066404342651367,-3.649054527282715,1.4859429597854614,0.2333436459302902,-0.1343863904476165,0.2309002727270126,#
9.109475135803224,-3.9218363761901855,1.4691929817199707,0.2418954968452453,-0.130721315741539,0.2174616158008575,#
9.109475135803224,-3.9218363761901855,1.4691929817199707,0.2431172132492065,-0.1258345395326614,0.199136197566986,#
9.159724235534668,-4.0079779624938965,1.581655740737915,0.2418954968452453,-0.1148392781615257,0.199136197566986,#
9.250652313232422,-4.266402721405029,1.852044701576233,0.1673721522092819,-0.0745233595371246,0.2321219593286514,#
9.396614074707031,-4.654040336608887,1.868794322013855,0.0232121963053941,-0.0427593067288398,0.2883199155330658,#
9.276973724365234,-5.168497085571289,1.5122638940811155,-0.0879620015621185,-0.0085518611595034,0.3359659910202026,#
9.276973724365234,-5.168497085571289,1.5122638940811155,-0.3005368411540985,0.0952921733260154,0.4532486498355865,#
9.293723106384276,-5.788238048553467,1.65583336353302,-0.393385648727417,0.1429382413625717,0.5106682777404785,#
9.396614074707031,-6.436692714691162,2.050648927688598,-0.5619794726371765,0.2015795856714248,0.6511631608009338,#
9.643074989318848,-7.058826446533203,2.256431579589844,-0.7330166697502136,0.2736595571041107,0.8112051486968994,#
9.913464546203612,-7.668996810913086,2.4813570976257324,-0.833195686340332,0.3213056325912475,0.9236010909080504,#
10.169495582580566,-8.169095993041992,2.452643394470215,-0.9724688529968262,0.445918470621109,1.1862653493881226,#
10.169495582580566,-8.169095993041992,2.452643394470215,-1.1215155124664309,0.5876350998878479,1.48802387714386,#
9.93260669708252,-8.740981101989746,2.715853452682495,-1.2510151863098145,0.6792621612548828,1.6553959846496582,#
9.595218658447266,-9.31047248840332,2.280359983444214,-1.492910623550415,0.8722898364067078,1.979145050048828,#
9.30329418182373,-9.992427825927734,2.376072883605957,-1.594311237335205,1.0030112266540527,2.2784602642059326,#
9.104689598083496,-10.990234375,3.043670415878296,-1.5759859085083008,1.0469921827316284,2.42017674446106,#
9.104689598083496,-10.990234375,3.043670415878296,-1.3328686952590942,1.0824213027954102,2.66207218170166,#
9.360722541809082,-11.454442024230955,3.232703685760498,-1.1337324380874634,1.0983033180236816,2.7720248699188232,#
9.42772102355957,-11.385049819946287,2.7804601192474365,-0.833195686340332,1.1654964685440063,3.0359108448028564,#
9.025726318359377,-11.36351490020752,2.258824586868286,-0.7159129977226257,1.3011046648025513,3.2997968196868896,#
8.248059272766113,-11.10030460357666,2.4598214626312256,-0.634059488773346,1.3658545017242432,3.403640985488892,#
7.324430465698242,-11.112268447875977,3.170490026473999,-0.4104893505573272,1.4550381898880005,3.563682794570923,#
7.324430465698242,-11.112268447875977,3.170490026473999,-0.2028012871742248,1.5417784452438354,3.7078425884246826,#
6.774080753326416,-10.808380126953123,3.1585259437561035,-0.1893626451492309,1.5197879076004028,3.776257514953613,#
6.070591449737549,-11.31565761566162,2.400001049041748,-0.4275930821895599,1.4745851755142212,3.919195890426636,#
5.235496044158936,-11.31565761566162,1.8448662757873533,-0.5864133238792419,1.47825026512146,3.97661566734314,#
4.675575256347656,-11.02134132385254,2.1846470832824707,-0.6084038615226746,1.4513731002807615,4.010822772979736,#
4.675575256347656,-11.02134132385254,2.1846470832824707,-0.3677300214767456,1.3792930841445925,3.99616265296936,#
4.441079139709473,-10.918450355529783,2.763710021972656,-0.256555825471878,1.345085620880127,3.990054130554199,#
4.041477203369141,-10.372885704040527,2.25403904914856,-0.1343863904476165,1.3353121280670166,4.005936145782471,#
3.1752755641937256,-9.332008361816406,1.7515461444854736,-0.1771456897258758,1.446486234664917,3.9643983840942383,#
2.03629207611084,-8.882158279418945,1.3519448041915894,-0.2431172132492065,1.502684235572815,3.914309024810791,#
2.03629207611084,-8.882158279418945,1.3519448041915894,-0.3530696928501129,1.5601038932800293,3.772592544555664,#
1.442872166633606,-8.434700012207031,1.37587308883667,-0.4239279925823211,1.5552170276641846,3.71517276763916,#
1.0600204467773438,-8.212166786193848,1.8759729862213133,-0.546097457408905,1.510014295578003,3.547800779342652,#
0.6293123364448547,-7.36032247543335,1.7994027137756348,-0.5913001298904419,1.4868022203445437,3.387758731842041,#
-0.2273181527853012,-6.6831536293029785,1.1150553226470947,-0.6230642199516296,1.501462459564209,3.291244983673096,#
-0.705882728099823,-6.7621169090271,0.5718846321105957,-0.7550071477890015,1.5136795043945312,3.092108726501465,#
-0.705882728099823,-6.7621169090271,0.5718846321105957,-0.7085827589035034,1.4892456531524658,2.8734254837036133,#
-1.031306505203247,-5.864808082580566,0.4067798554897308,-0.6181774139404297,1.47825026512146,2.7414824962615967,#
-1.392622709274292,-5.32403039932251,0.1603191047906875,-0.4007157981395721,1.4660333395004272,2.438502311706543,#
-1.8664016723632808,-4.8813581466674805,-0.3302095234394073,-0.4056025743484497,1.40617036819458,2.167285919189453,#
-2.368894338607788,-4.6995038986206055,-1.0001999139785769,-0.4727957546710968,1.3621894121170044,2.03412127494812,#
-2.368894338607788,-4.6995038986206055,-1.0001999139785769,-0.5961868762969971,1.2387982606887815,1.799556016921997,#
-2.9072794914245605,-4.907679080963135,-1.8927226066589355,-0.6536065340042114,1.1716049909591677,1.673721432685852,#
-3.177668571472168,-4.979463577270508,-2.565105676651001,-0.6768187284469604,1.0250016450881958,1.4196090698242188,#
-3.531806230545044,-4.34536600112915,-3.328416109085083,-0.4324798583984375,0.9236010909080504,1.132510781288147,#
-3.768695831298828,-4.141976356506348,-3.672982692718506,-0.3408527672290802,0.8869501948356628,0.9846857786178588,#
-3.768695831298828,-4.141976356506348,-3.672982692718506,-0.3274141252040863,0.7427902817726135,0.7330166697502136,left
-3.981656789779663,-4.503292083740234,-4.409972190856934,-0.5143333673477173,0.5485408306121826,0.5167768001556396,left
-4.187439441680908,-5.032106399536133,-5.860023021697998,-0.6401678919792175,0.445918470621109,0.4239279925823211,left
-4.244867324829102,-5.187639236450195,-7.042076587677002,-0.8637380003929138,0.2418954968452453,0.2382304221391677,left
-4.900500774383545,-5.632704257965088,-7.963313579559326,-0.9223793148994446,0.1404948681592941,0.130721315741539,left
-5.718846321105957,-5.733203411102295,-8.82233715057373,-1.054322361946106,-0.0647498071193695,-0.0305423624813556,left
-5.718846321105957,-5.733203411102295,-8.82233715057373,-1.2705622911453247,-0.3090887069702148,-0.1478250324726104,left
-5.7619171142578125,-6.573083877563477,-9.09511947631836,-1.4098354578018188,-0.445918470621109,-0.1930277347564697,left
-5.532205581665039,-7.101897716522217,-9.970890998840332,-1.5234529972076416,-0.8063183426856995,-0.2956500649452209,left
-6.072984218597412,-7.195217609405518,-11.832507133483888,-1.5882028341293335,-1.0885297060012815,-0.3689517080783844,left
-5.627918720245361,-8.001599311828613,-14.187045097351074,-1.6883817911148071,-1.2070342302322388,-0.4092676639556885,left
-5.627918720245361,-8.001599311828613,-14.187045097351074,-2.097649574279785,-1.4965757131576538,-0.5021164417266846,left
-4.393222332000732,-9.10229778289795,-16.450654983520508,-2.37741756439209,-1.6859383583068848,-0.5412106513977051,left
-3.0939197540283203,-10.384849548339844,-17.5011043548584,-2.960165739059448,-2.186833143234253,-0.6511631608009338,left
-1.8616160154342647,-11.38026523590088,-17.80259895324707,-3.2411556243896484,-2.8966376781463623,-0.8075400590896606,left
-0.7393822073936462,-10.74855899810791,-18.675981521606445,-3.2216084003448486,-3.341334342956543,-0.8771765828132629,left
1.7491532564163208,-13.189238548278809,-17.19003677368164,-3.214278221130371,-4.2771525382995605,-1.007897973060608,left
1.7491532564163208,-13.189238548278809,-17.19003677368164,-3.4500653743743896,-5.358351707458496,-1.178935170173645,left
5.015356063842773,-15.05564022064209,-13.095918655395508,-3.4464001655578613,-5.861690521240234,-1.2620103359222412,left
6.56829833984375,-14.818751335144045,-9.542576789855955,-3.115320920944214,-6.653347969055176,-1.4843589067459106,left
8.958727836608887,-15.902698516845703,-3.397808313369751,-2.910076379776001,-6.9294514656066895,-1.5295615196228027,left
10.04985523223877,-15.943376541137695,3.13220477104187,-2.571666955947876,-7.332610607147217,-1.5039058923721311,left
10.04985523223877,-15.943376541137695,3.13220477104187,-2.103757858276367,-7.304511070251465,-1.320651650428772,left
9.375079154968262,-15.158531188964844,8.372486114501953,-1.8960697650909424,-7.100488185882568,-1.1862653493881226,left
8.767301559448242,-14.431112289428713,13.351950645446776,-1.4599249362945557,-6.437108039855957,-0.9174925684928894,left
7.030113220214844,-12.856635093688965,15.67538070678711,-1.244906663894653,-5.506176948547363,-0.6145123243331909,left
4.709074974060059,-11.598011016845703,16.517654418945312,-1.2314679622650146,-4.9454193115234375,-0.4727957546710968,left
4.709074974060059,-11.598011016845703,16.517654418945312,-1.29499614238739,-3.864219665527344,-0.2626643180847168,left
3.270988702774048,-10.77727222442627,15.88355541229248,-1.2302463054656982,-3.413414478302002,-0.1832541674375534,left
1.856830358505249,-10.109675407409668,15.524633407592772,-0.9578084945678712,-2.629086494445801,-0.0219905003905296,left
0.5647061467170715,-9.164510726928713,14.256437301635742,-0.5754181146621704,-1.9815884828567505,0.0647498071193695,left
-1.0719845294952393,-8.50887680053711,12.026326179504396,-0.4581354260444641,-1.6639479398727417,0.1148392781615257,#
-2.4717857837677,-7.93699312210083,9.26740264892578,-0.3994940817356109,-1.012784719467163,0.130721315741539,#
-2.4717857837677,-7.93699312210083,9.26740264892578,-0.3274141252040863,-0.4618005454540252,0.0867403075098991,#
-4.091726779937744,-8.200202941894531,6.915257453918457,-0.235787034034729,-0.2455605864524841,0.0623064190149307,#
-4.2376885414123535,-8.461020469665527,5.14456844329834,0.0158820282667875,0.0745233595371246,0.0024433890357613,#
-5.347958564758301,-8.173882484436035,2.9766712188720703,0.1979145109653473,0.2370087206363678,-0.007330167107284,#
-5.697310447692871,-8.482556343078613,2.031506299972534,0.2235700935125351,0.3237490355968475,-0.0012216945178806,#
-5.697310447692871,-8.482556343078613,2.031506299972534,0.0708582773804664,0.471574068069458,-0.0207688063383102,#
-5.0225348472595215,-8.896513938903809,1.584048628807068,-0.0012216945178806,0.4679089784622192,-0.0390942245721817,#
-5.5106706619262695,-8.774479866027832,1.0959126949310305,-0.0183254163712263,0.4874561131000519,-0.0537545569241046,#
-5.436492443084717,-8.784051895141602,1.0671988725662231,0.0171037223190069,0.4752391576766968,-0.0232121963053941,#
-4.821537494659424,-8.664410591125488,1.1341978311538696,0.0671931952238082,0.4361449182033539,-0.0109952501952648,#
-4.821537494659424,-8.664410591125488,1.1341978311538696,0.1795890927314758,0.3225273489952087,-0.003665083553642,#
-4.49132776260376,-8.039883613586426,1.2299107313156128,0.2541124522686004,0.2687727808952331,-0.007330167107284,#
-4.1659040451049805,-7.810173511505127,1.6965112686157229,0.2467822879552841,0.2443388998508453,-0.0122169442474842,#
-3.6921253204345694,-7.432106971740723,2.043470621109009,0.2040229737758636,0.2040229737758636,-0.0134386392310261,#
-3.400200843811035,-7.106683254241943,2.342573404312134,0.2089097648859024,0.1905843466520309,-0.0195471122860908,#
-3.0556347370147705,-6.721438884735107,2.5076780319213867,0.256555825471878,0.175924003124237,-0.0574196390807628,#
-3.0556347370147705,-6.721438884735107,2.5076780319213867,0.4031591713428497,0.1844758540391922,-0.130721315741539,#
-2.778067111968994,-6.331408977508545,2.3569302558898926,0.4935645759105682,0.1979145109653473,-0.1856975704431533,#
-2.423929214477539,-5.874379634857178,1.938186287879944,0.5277720093727112,0.1954711079597473,-0.2883199155330658,#
-2.8522443771362305,-5.874379634857178,1.636690616607666,0.4251496791839599,0.1588202863931656,-0.3994940817356109,#
-2.452643394470215,-6.273981094360352,1.6103696823120115,0.3494046330451965,0.1673721522092819,-0.4569137394428253,#
-2.452643394470215,-6.273981094360352,1.6103696823120115,0.2736595571041107,0.1221694499254226,-0.601073682308197,#
-1.6103696823120115,-6.10169792175293,2.0003998279571533,0.2467822879552841,0.0745233595371246,-0.7550071477890015,#
-1.782652735710144,-6.489335060119629,2.4358932971954346,0.3127537965774536,0.0109952501952648,-0.8478559851646423,#
-1.8161523342132568,-6.532405853271484,2.3497519493103027,0.4239279925823211,0.0183254163712263,-1.016449809074402,#
-1.947757601737976,-6.295516490936279,1.782652735710144,0.4911211729049682,0.0109952501952648,-1.1215155124664309,#
-1.430907964706421,-6.240481376647949,1.3854442834854126,0.4679089784622192,0.0268772784620523,-1.2852225303649902,#
-1.430907964706421,-6.240481376647949,1.3854442834854126,0.2626643180847168,0.0342074446380138,-1.4904673099517822,#
-1.0719845294952393,-6.64486837387085,1.0408778190612793,0.2052446752786636,0.0122169442474842,-1.6028631925582886,#
-1.0839486122131348,-7.637890338897705,1.9932212829589844,0.2211267054080963,0.0769667476415634,-1.8410935401916504,#
-1.112662434577942,-7.594818592071533,2.589033842086792,0.2895416021347046,0.1600419729948043,-2.104979515075684,#
-1.3830513954162598,-6.790830135345459,1.741974949836731,0.4544703662395477,0.2052446752786636,-2.218597173690796,#
-1.3830513954162598,-6.790830135345459,1.741974949836731,0.3689517080783844,0.3457395434379577,-2.427506923675537,#
