accX,accY,accZ,gyrX,gyrY,gyrZ,annotation
-5.61834716796875,-11.2366943359375,-3.1130621433258057,-1.2632319927215576,-2.0377864837646484,0.9064972996711732,#
-4.49132776260376,-11.581260681152344,-2.959921598434448,-1.50757098197937,-2.4494974613189697,1.0005677938461304,#
-4.49132776260376,-11.581260681152344,-2.959921598434448,-1.5136795043945312,-2.65229868888855,1.022558331489563,delete
-3.7256247997283936,-11.772686958312988,-2.809173583984375,-1.494132399559021,-3.0383541584014893,1.0714260339736938,delete
-2.665604591369629,-11.854043006896973,-1.8233308792114256,-1.5405566692352295,-3.43051815032959,1.1459494829177856,delete
-2.4717857837677,-11.612367630004885,-3.3427734375,-1.5503302812576294,-3.5575742721557617,1.1386191844940186,delete
-3.036492109298706,-12.413965225219728,-3.438485860824585,-1.5503302812576294,-3.7457151412963863,1.1215155124664309,delete
-0.4666004180908203,-13.320843696594238,-2.0027925968170166,-1.4599249362945557,-4.154983043670654,1.1129636764526367,delete
-0.4666004180908203,-13.320843696594238,-2.0027925968170166,-1.4318259954452517,-4.459184646606445,1.142284274101257,delete
3.153740167617798,-13.15813159942627,1.6103696823120115,-1.582094430923462,-4.9246506690979,1.1972606182098389,delete
5.850451469421387,-11.71286678314209,3.345165967941284,-1.9730366468429563,-5.056593418121338,1.2595670223236084,delete
7.511070251464844,-9.74835968017578,4.584648132324219,-2.050003290176392,-4.982069969177246,1.266897201538086,delete
8.578269004821777,-9.640682220458984,7.503891944885254,-1.8801878690719604,-4.435972690582275,1.1606097221374512,delete
8.578269004821777,-9.640682220458984,7.503891944885254,-1.4758068323135376,-3.991276025772095,1.0738694667816162,delete
6.597012042999268,-8.62612533569336,10.425528526306152,-0.3738385140895843,-2.9296233654022217,0.7757760286331177,delete
3.842873096466065,-6.075376510620117,10.348958015441896,0.0390942245721817,-2.2833471298217773,0.7159129977226257,delete
2.3018953800201416,-4.776073932647705,9.377471923828123,-0.0842969194054603,-2.040229797363281,0.652384877204895,delete
-0.057427741587162,-5.204389572143555,8.341379165649414,-0.5082249045372009,-1.5906461477279663,0.3762818872928619,delete
-2.337787628173828,-6.649653911590576,8.303093910217285,-0.6377245187759399,-1.1826002597808838,0.0109952501952648,delete
-2.337787628173828,-6.649653911590576,8.303093910217285,-0.6047387719154358,-1.1080769300460815,-0.1453816443681717,delete
-1.155733346939087,-7.929814338684082,7.45364236831665,-0.5167768001556396,-1.119072198867798,-0.2015795856714248,delete
-0.2536391913890838,-8.310273170471191,6.850651264190674,-0.4361449182033539,-0.9822423458099364,-0.2150182276964187,delete
-1.6917256116867063,-9.06401252746582,6.151947498321533,-0.1808107793331146,-0.4337015450000763,-0.2944283783435821,delete
-2.2133607864379883,-9.480363845825195,5.958127975463867,0.1649287492036819,-0.1563768982887268,-0.2699944972991943,delete
-2.2133607864379883,-9.480363845825195,5.958127975463867,0.2736595571041107,-0.0598630309104919,-0.2712161839008331,delete
-2.6249265670776367,-9.55214786529541,4.907679080963135,0.3530696928501129,0.0891837030649185,-0.2504473626613617,delete
-3.31166672706604,-9.588040351867676,4.374079704284668,0.3066453039646148,0.1771456897258758,-0.2418954968452453,delete
-3.689732551574707,-9.308080673217772,4.149154186248779,0.2272351831197738,0.1820324808359146,-0.2272351831197738,delete
-3.565305471420288,-9.355937004089355,3.6251261234283447,0.0134386392310261,0.1954711079597473,-0.1673721522092819,delete
-3.565305471420288,-9.355937004089355,3.6251261234283447,-0.0708582773804664,0.199136197566986,-0.1062874197959899,delete
-3.3427734375,-9.35832977294922,3.3643085956573486,-0.0219905003905296,0.1795890927314758,-0.0794101431965828,delete
-3.1202406883239746,-9.68375301361084,3.1513471603393555,0.1466033309698104,0.1502684205770492,-0.0366508327424526,delete
-3.029313325881958,-9.477970123291016,3.170490026473999,0.2125748395919799,0.1466033309698104,-0.0158820282667875,delete
-3.225525140762329,-8.85105037689209,3.225525140762329,0.2907632887363434,0.1575985848903656,-0.003665083553642,delete
-3.235095977783203,-8.745766639709473,3.192025184631348,0.2040229737758636,0.1539334952831268,-0.003665083553642,delete
-3.235095977783203,-8.745766639709473,3.192025184631348,0.1136175915598869,0.1417165547609329,0.0122169442474842,delete
-3.1800613403320312,-8.915657043457031,3.304487943649292,-0.0280989725142717,0.1075091138482093,0.0293206684291362,delete
-3.3786656856536865,-9.008977890014648,3.098705530166626,-0.0537545569241046,0.0806318372488021,0.0256555844098329,delete
-3.538984537124634,-8.973085403442383,3.077169895172119,-0.0183254163712263,0.0647498071193695,0.0183254163712263,delete
-2.959921598434448,-8.918049812316895,3.321237564086914,0.1026223376393318,-0.003665083553642,0.0146603342145681,delete
-2.959921598434448,-8.918049812316895,3.321237564086914,0.1478250324726104,-0.0439810007810592,0.0244338884949684,delete
-2.7828526496887207,-8.578269004821777,3.622733592987061,0.1258345395326614,-0.0305423624813556,0.0366508327424526,delete
-3.455235719680786,-8.740981101989746,3.644268989562988,-0.0183254163712263,-0.0012216945178806,0.0476460866630077,delete
-3.2279179096221924,-8.621339797973633,3.3379876613616943,-0.0806318372488021,-0.0183254163712263,0.0610847249627113,delete
-2.7278177738189697,-8.539983749389648,3.421736478805542,-0.1600419729948043,-0.0586413368582725,0.0598630309104919,delete
-2.971885919570923,-8.669197082519531,3.658626079559326,-0.1197260618209838,-0.0390942245721817,0.0305423624813556,delete
-2.971885919570923,-8.669197082519531,3.658626079559326,-0.0452026948332786,-0.0146603342145681,0.0061084721237421,delete
-3.572484016418457,-8.645268440246582,3.87876558303833,0.0830752253532409,-0.0012216945178806,-0.0097735561430454,delete
-3.369094133377075,-8.525627136230469,3.768695831298828,0.130721315741539,0.0061084721237421,-0.0244338884949684,delete
-3.2159535884857178,-8.45862865447998,3.6634113788604736,0.0977355539798736,0.0048867780715227,-0.0232121963053941,delete
-3.201596736907959,-8.669197082519531,3.596412420272827,-0.0769667476415634,0.0024433890357613,-0.0122169442474842,delete
-3.201596736907959,-8.669197082519531,3.596412420272827,-0.1368297785520553,-0.0012216945178806,-0.0122169442474842,delete
-3.34995174407959,-8.623733520507812,3.747160196304321,-0.1172826737165451,-0.0012216945178806,-0.0219905003905296,delete
-3.4408791065216064,-8.999405860900879,3.6921253204345694,0.0195471122860908,-0.0293206684291362,-0.0427593067288398,delete
-3.270988702774048,-8.906085968017578,3.677768468856812,0.0891837030649185,-0.0415376126766204,-0.0439810007810592,delete
-3.2207393646240234,-8.71466064453125,3.6562328338623047,0.1331647038459777,-0.0390942245721817,-0.0574196390807628,delete
-3.2207393646240234,-8.71466064453125,3.6562328338623047,-0.0195471122860908,-0.0097735561430454,-0.0390942245721817,delete
-3.232703685760498,-8.60459041595459,3.677768468856812,-0.0989572554826736,-0.007330167107284,-0.0293206684291362,delete
-3.170490026473999,-8.839086532592773,3.840480089187622,-0.1404948681592941,0.0024433890357613,-0.0268772784620523,delete
-3.041277408599853,-8.918049812316895,3.775874137878418,-0.0904053896665573,0.0061084721237421,-0.0232121963053941,delete
-3.407379388809204,-8.96112060546875,3.7567315101623535,0.040315918624401,0.0268772784620523,-0.0219905003905296,delete
-3.517449140548706,-8.764908790588379,3.6251261234283447,0.1172826737165451,0.0439810007810592,-0.0305423624813556,delete
-3.517449140548706,-8.764908790588379,3.6251261234283447,0.1185043603181839,0.0354291386902332,-0.0280989725142717,delete
-3.2039895057678223,-8.731410026550293,3.5700912475585938,0.0256555844098329,0.0329857505857944,-0.0293206684291362,delete
-3.141776323318481,-8.688338279724121,3.6251261234283447,-0.0293206684291362,0.0378725305199623,-0.0256555844098329,delete
-3.32602334022522,-8.98265552520752,3.5461630821228027,-0.0195471122860908,0.0378725305199623,-0.0293206684291362,delete
-3.084348201751709,-8.915657043457031,3.5270204544067383,0.0647498071193695,0.0207688063383102,-0.0256555844098329,delete
-3.084348201751709,-8.915657043457031,3.5270204544067383,0.1172826737165451,0.0012216945178806,-0.0232121963053941,delete
-2.871387243270874,-9.016156196594238,3.4241292476654053,0.2296785563230514,0.0024433890357613,-0.0500894747674465,delete
-3.1728827953338623,-8.980262756347656,3.4672000408172607,0.342074453830719,0.0097735561430454,-0.0781884491443634,delete
-3.25663161277771,-9.018548011779783,3.8261232376098633,0.3640649616718292,0.0085518611595034,-0.0733016654849052,delete
-2.9479575157165527,-8.82233715057373,4.192224979400635,0.3665083348751068,-0.0048867780715227,-0.0794101431965828,delete
-2.940778970718384,-8.635696411132812,4.242474555969238,0.2858764827251434,0.0525328628718853,-0.123391143977642,delete
-2.940778970718384,-8.635696411132812,4.242474555969238,0.2528907656669616,0.1209477484226226,-0.1710372269153595,delete
-2.9838497638702397,-7.740781307220459,4.948357105255127,0.3530696928501129,0.2321219593286514,-0.3909422159194946,delete
-3.3619158267974854,-8.037490844726562,4.764110088348389,0.3921639025211334,0.2211267054080963,-0.601073682308197,delete
-3.2039895057678223,-8.855835914611816,4.220939159393311,0.2553341388702392,0.1649287492036819,-0.5070031881332397,delete
-2.232503652572632,-10.193424224853516,3.079562902450561,-0.0488677769899368,-0.0097735561430454,-0.1404948681592941,delete
-2.232503652572632,-10.193424224853516,3.079562902450561,-0.0855186134576797,-0.1270562261343002,-0.0427593067288398,delete
-2.0961124897003174,-11.373086929321287,3.5437703132629395,0.6169556975364685,0.0513111688196659,0.0549762547016143,delete
-2.4598214626312256,-10.380064964294434,4.553541660308838,1.3316470384597778,0.2076880484819412,-0.0305423624813556,delete
-2.959921598434448,-8.164310455322266,5.060819625854492,1.2693406343460083,0.31641885638237,-0.0476460866630077,delete
-2.6608188152313232,-8.030312538146973,5.326423168182373,0.6951441764831543,0.2333436459302902,0.0427593067288398,delete
-1.5242280960083008,-9.521041870117188,5.201996326446533,-0.0671931952238082,-0.1050657257437706,0.2052446752786636,delete
-1.5242280960083008,-9.521041870117188,5.201996326446533,-0.1966928243637085,-0.1808107793331146,0.3139754831790924,delete
-1.739582061767578,-9.757929801940918,4.362115383148193,0.0122169442474842,-0.1612636744976043,0.3982723951339721,delete
-2.0243279933929443,-10.021141052246094,4.137190341949463,0.287098228931427,-0.1172826737165451,0.4080459475517273,delete
-1.9334007501602173,-10.023534774780272,4.555934429168701,0.7403469085693359,0.0012216945178806,0.4618005454540252,delete
-1.6390833854675293,-9.061619758605955,4.953143119812012,0.9333745837211608,0.1698155403137207,0.4972296357154846,delete
-1.6390833854675293,-9.061619758605955,4.953143119812012,0.9309312105178832,0.2418954968452453,0.517998456954956,delete
-1.641476273536682,-7.9585280418396,4.883750915527344,0.7843278050422668,0.2895416021347046,0.5399889945983887,delete
-2.060220241546631,-7.537391662597656,4.945964336395264,0.546097457408905,0.2492256760597229,0.5375455617904663,delete
-2.0650060176849365,-8.2695951461792,5.000998973846436,0.4740174412727356,0.1966928243637085,0.5021164417266846,delete
-1.6582260131835938,-8.98265552520752,4.247260093688965,0.4471401870250702,0.0635281130671501,0.5277720093727112,delete
-1.6582260131835938,-8.98265552520752,4.247260093688965,0.5008947253227234,-0.069636583328247,0.601073682308197,delete
-0.7465606331825256,-9.549755096435549,4.412364959716797,0.5448757410049438,-0.0733016654849052,0.6181774139404297,delete
-0.3637090623378753,-8.554340362548828,5.084747791290283,0.8698464632034302,0.1514901220798492,0.5570926666259766,delete
-1.2323036193847656,-7.458428382873535,4.950750350952148,1.0616525411605835,0.287098228931427,0.5118899941444397,delete
-2.155933380126953,-6.415157318115234,5.230710506439209,1.200925588607788,0.4850127100944519,0.4178195297718048,delete
-2.03629207611084,-5.843273162841797,5.201996326446533,1.132510781288147,0.5399889945983887,0.3603998720645904,delete
-2.03629207611084,-5.843273162841797,5.201996326446533,1.0555440187454224,0.4886777997016907,0.4019374847412109,delete
-1.3663017749786377,-5.709274768829346,5.290531158447266,0.8857284784317017,0.4972296357154846,0.3713951408863067,delete
-1.2370892763137815,-5.331209182739258,5.154139995574951,0.7085827589035034,0.7733326554298401,0.2162399291992187,delete
-1.741974949836731,-4.644468784332275,4.986642360687256,0.6621583700180054,0.9309312105178832,0.0879620015621185,delete
-2.167897224426269,-3.809373617172241,4.505684852600098,0.494786262512207,1.1312891244888306,-0.3213056325912475,delete
-2.167897224426269,-3.809373617172241,4.505684852600098,0.3665083348751068,1.1777135133743286,-0.5632011890411377,delete
-1.8376877307891848,-4.110869407653809,4.374079704284668,0.2919849753379822,1.2302463054656982,-1.09219491481781,delete
-1.8089739084243772,-4.493720531463623,4.254438400268555,0.2602209150791168,1.3805147409439087,-1.5759859085083008,delete
-2.2707886695861816,-4.960320949554443,4.120440483093262,0.2932066619396209,1.424495816230774,-1.81177282333374,delete
-2.761317014694214,-5.982056617736816,4.168296813964844,0.3017585575580597,1.4171655178070068,-2.263799905776977,delete
-2.8283162117004395,-6.242874622344971,3.1800613403320312,0.178367406129837,1.3585243225097656,-2.65229868888855,delete
-2.8283162117004395,-6.242874622344971,3.1800613403320312,0.2504473626613617,1.3414205312728882,-2.835552930831909,delete
-2.6943180561065674,-5.584848403930664,2.541177749633789,0.2162399291992187,1.3511940240859983,-3.2643675804138184,delete
-2.959921598434448,-4.34536600112915,1.435693621635437,0.0280989725142717,1.3658545017242432,-3.71517276763916,delete
-2.414358139038086,-5.5968122482299805,1.308874011039734,-0.0647498071193695,1.2742273807525637,-3.883766651153565,delete
-1.6295121908187866,-8.975478172302246,1.184447169303894,-0.2919849753379822,1.0531005859375,-4.146430969238281,delete
-1.6295121908187866,-8.975478172302246,1.184447169303894,-0.42270627617836,0.896723747253418,-4.201407432556152,delete
-1.196411371231079,-11.71286678314209,1.8999011516571045,-0.8490777015686035,0.7843278050422668,-4.150096416473389,delete
-1.9525433778762815,-11.674582481384276,2.038684844970703,-0.8063183426856995,0.8881718516349792,-3.816573619842529,delete
-2.366501569747925,-10.126425743103027,1.739582061767578,-0.8490777015686035,0.9345962405204772,-3.5624611377716064,delete
-2.3736801147460938,-11.02134132385254,1.8089739084243772,-0.9590301513671876,1.0262233018875122,-3.319344043731689,delete
-2.3736801147460938,-11.02134132385254,1.8089739084243772,-0.8686248064041138,0.6487197875976562,-3.3254523277282715,delete
-1.3830513954162598,-14.821144104003906,3.69930362701416,-0.684148907661438,0.4837909936904907,-3.332782745361328,delete
-1.0695916414260864,-13.806586265563965,3.8500516414642334,0.1869192570447921,0.4886777997016907,-3.072561740875244,delete
-1.34476637840271,-11.722437858581545,2.8115665912628174,0.4251496791839599,0.4654656052589416,-2.80256724357605,delete
-1.3710873126983645,-8.635696411132812,2.232503652572632,0.1429382413625717,0.4471401870250702,-2.499586820602417,delete
-0.3924228847026825,-8.109275817871094,2.4095723628997803,-0.5326588153839111,0.2150182276964187,-2.3016724586486816,delete
-0.3924228847026825,-8.109275817871094,2.4095723628997803,-0.8881718516349792,0.0464243926107883,-2.273573398590088,delete
1.0217353105545044,-10.916057586669922,3.4959137439727783,-1.0408836603164673,-0.1954711079597473,-2.1941633224487305,delete
1.3471590280532837,-12.062219619750977,4.254438400268555,-0.6438329815864563,-0.0574196390807628,-2.068328857421875,delete
0.9810572862625122,-10.427922248840332,4.115654945373535,-0.3640649616718292,0.0293206684291362,-1.9583762884140012,delete
0.607776939868927,-8.078168869018555,3.785445213317871,-0.1575985848903656,0.1172826737165451,-1.7800087928771973,delete
0.607776939868927,-8.078168869018555,3.785445213317871,-0.3261924386024475,0.0989572554826736,-1.738471269607544,delete
1.1030912399291992,-7.39142894744873,3.8500516414642334,-0.726908266544342,-0.2174616158008575,-1.7409145832061768,delete
2.4430718421936035,-8.532805442810059,4.051048755645752,-0.8661814332008362,-0.1698155403137207,-1.8019993305206297,delete
2.7014968395233154,-7.893921852111816,4.6995038986206055,-0.860072910785675,-0.0830752253532409,-1.7848955392837524,delete
3.0101709365844727,-7.355536937713623,4.488935470581055,-0.7452336549758911,0.0537545569241046,-1.858197331428528,delete
3.187239646911621,-7.123432636260986,4.000799655914307,-0.7085827589035034,0.152711808681488,-1.894848108291626,delete
3.187239646911621,-7.123432636260986,4.000799655914307,-0.6413896083831787,0.152711808681488,-1.9082868099212649,delete
4.177868366241455,-10.293922424316406,3.7710886001586914,-0.6902573704719543,0.0061084721237421,-1.83132004737854,delete
4.996213912963867,-10.662418365478516,3.5676987171173096,-0.6755970120429993,-0.0598630309104919,-1.7848955392837524,delete
4.874179840087891,-9.568897247314451,2.560320377349853,-0.5277720093727112,-0.1148392781615257,-1.806886076927185,delete
5.893522262573242,-9.078369140625,1.442872166633606,-0.3897205293178558,-0.3677300214767456,-1.8459802865982056,delete
5.893522262573242,-9.078369140625,1.442872166633606,-0.6988092660903931,-0.4837909936904907,-1.7592401504516602,delete
7.740781307220459,-8.15234661102295,0.5144568681716919,-1.1716049909591677,-0.5937435030937195,-1.6077499389648438,delete
8.317451477050781,-7.264609336853027,-0.0358923412859439,-1.7653485536575315,-0.4532486498355865,-1.612636685371399,delete
7.8795647621154785,-6.697510242462158,-0.2727817595005035,-1.9681499004364011,-0.5131116509437561,-1.7983342409133911,delete
7.956134796142578,-6.7692952156066895,-0.7800601720809937,-2.1281917095184326,-0.5277720093727112,-1.9950270652771,delete
7.956134796142578,-6.7692952156066895,-0.7800601720809937,-2.438502311706543,-0.7440119385719299,-2.106201171875,delete
9.238687515258787,-6.893722057342529,-0.9930213689804076,-2.5618932247161865,-0.7293516397476196,-2.112309694290161,delete
11.382657051086426,-7.41535758972168,0.3110669553279876,-2.273573398590088,-0.5106682777404785,-2.1746160984039307,delete
11.952149391174316,-7.219145774841309,1.2323036193847656,-2.017017602920532,-0.5070031881332397,-2.265021562576294,delete
11.133803367614746,-7.310072898864746,1.428515076637268,-1.321873426437378,-0.6084038615226746,-2.2149322032928467,delete
10.435098648071287,-7.709674835205078,1.411765456199646,-1.137397527694702,-0.9407047629356384,-1.9473810195922847,delete
10.435098648071287,-7.709674835205078,1.411765456199646,-1.0140063762664795,-1.0421053171157837,-1.8887397050857544,delete
10.846665382385254,-7.896315097808838,1.380658507347107,-0.6817055344581604,-1.0628741979599,-1.706707239151001,delete
10.600205421447754,-7.788637638092041,0.6029912829399109,-0.6230642199516296,-0.8441908955574036,-1.4672551155090332,delete
9.719645500183104,-7.267002105712891,-0.3708875179290771,-0.6022953391075134,-0.6988092660903931,-1.3096565008163452,delete
9.107083320617676,-6.640083312988281,-0.4450649619102478,-0.4312581717967987,-0.554649293422699,-1.115407109260559,delete
9.107083320617676,-6.640083312988281,-0.4450649619102478,-0.3090887069702148,-0.4886777997016907,-0.9700254201889038,delete
8.920442581176758,-5.680561065673828,-0.7202396392822266,-0.0965138673782348,-0.2480039745569229,-0.6768187284469604,delete
8.303093910217285,-5.462814331054688,-0.7489535212516785,-0.200357899069786,-0.0549762547016143,-0.3310791850090027,delete
8.047062873840332,-6.541977405548096,-0.7585247755050659,-0.3188622593879699,0.0329857505857944,-0.0830752253532409,delete
8.216952323913574,-6.1256256103515625,-0.8207381367683411,-0.4202629029750824,0.0513111688196659,0.1356080919504165,delete
8.33898639678955,-5.726025104522705,-1.1653046607971191,-0.3555130958557129,0.0574196390807628,0.1685938388109207,delete
8.33898639678955,-5.726025104522705,-1.1653046607971191,-0.3127537965774536,0.0415376126766204,0.1722589135169983,delete
8.216952323913574,-5.462814331054688,-1.529013752937317,-0.1050657257437706,-0.0733016654849052,0.199136197566986,delete
8.511269569396973,-5.333601474761963,-1.4572290182113647,0.1722589135169983,-0.2028012871742248,0.1771456897258758,delete
8.824729919433594,-4.838287353515625,-1.2586246728897097,0.2919849753379822,-0.2418954968452453,0.1514901220798492,delete
9.119047164916992,-4.189832210540772,-1.0719845294952393,0.4666872918605804,-0.2504473626613617,0.069636583328247,delete
9.119047164916992,-4.189832210540772,-1.0719845294952393,0.5131116509437561,-0.2260134816169738,0.0476460866630077,delete
9.116654396057127,-3.598805427551269,-1.0695916414260864,0.3701734542846679,-0.1637070626020431,0.0708582773804664,delete
8.920442581176758,-3.596412420272827,-0.8805587291717529,0.1478250324726104,-0.1026223376393318,0.0891837030649185,delete
8.74337387084961,-3.687339782714844,-0.7992027401924133,0.0439810007810592,-0.0708582773804664,0.0708582773804664,delete
8.647661209106445,-4.127618789672852,-0.9547362923622132,-0.0549762547016143,-0.0598630309104919,0.0048867780715227,delete
8.647661209106445,-4.469792366027832,-1.0408778190612793,-0.0378725305199623,-0.0623064190149307,-0.0415376126766204,delete
8.647661209106445,-4.469792366027832,-1.0408778190612793,-0.0354291386902332,-0.0586413368582725,-0.0415376126766204,delete
8.599804878234863,-4.409972190856934,-0.9643075466156006,-0.0537545569241046,-0.0476460866630077,-0.0390942245721817,delete
8.645268440246582,-4.613362312316895,-1.0695916414260864,-0.0561979450285434,-0.0342074446380138,-0.0390942245721817,delete
8.568697929382324,-4.759324073791504,-1.246660590171814,-0.0610847249627113,-0.0048867780715227,-0.0305423624813556,delete
8.530412673950195,-4.869394302368164,-1.459621787071228,-0.0671931952238082,0.0085518611595034,-0.0439810007810592,delete
8.530412673950195,-4.869394302368164,-1.459621787071228,-0.0390942245721817,0.0109952501952648,-0.0366508327424526,delete
8.666803359985352,-4.831109046936035,-1.56251323223114,0.0708582773804664,-0.0134386392310261,-0.0427593067288398,delete
8.745766639709473,-4.735395908355713,-1.368694543838501,0.1844758540391922,-0.0427593067288398,-0.0342074446380138,delete
8.786444664001465,-4.47697114944458,-1.2490534782409668,0.2101314514875412,-0.0500894747674465,-0.0219905003905296,delete
8.724230766296387,-4.2137603759765625,-1.1150553226470947,0.2247917801141739,-0.0647498071193695,-0.0097735561430454,delete
8.724230766296387,-4.2137603759765625,-1.1150553226470947,0.1979145109653473,-0.0684148892760276,-0.0195471122860908,delete
8.870193481445312,-3.651447057723999,-0.94037926197052,0.031764056533575,-0.0244338884949684,-0.0183254163712263,delete
8.865407943725586,-4.07258415222168,-1.0719845294952393,-0.0989572554826736,0.0427593067288398,-0.0452026948332786,delete
8.848658561706543,-4.340579986572266,-1.2562319040298462,-0.1380514800548553,0.0378725305199623,-0.0708582773804664,delete
8.6907320022583,-4.534398555755615,-1.4548362493515017,-0.1539334952831268,0.0452026948332786,-0.0500894747674465,delete
8.544770240783691,-4.687539577484131,-1.380658507347107,-0.1343863904476165,0.0427593067288398,-0.0134386392310261,delete
8.544770240783691,-4.687539577484131,-1.380658507347107,-0.1185043603181839,0.0158820282667875,-0.0061084721237421,delete
8.539983749389648,-4.709074974060059,-1.1868400573730469,-0.0720799788832664,-0.0305423624813556,-0.0122169442474842,delete
8.592625617980957,-4.5583271980285645,-0.9475577473640442,-0.0781884491443634,-0.0366508327424526,-0.0635281130671501,delete
8.901299476623535,-4.613362312316895,-1.2681961059570312,-0.0806318372488021,-0.0415376126766204,-0.0830752253532409,delete
8.93240737915039,-4.409972190856934,-1.294516921043396,-0.1050657257437706,-0.0097735561430454,-0.0671931952238082,delete
8.93240737915039,-4.409972190856934,-1.294516921043396,-0.1197260618209838,0.0256555844098329,-0.0561979450285434,delete
8.745766639709473,-4.811966419219971,-1.6677974462509155,-0.1453816443681717,0.0598630309104919,-0.0109952501952648,delete
8.652446746826172,-5.446063995361328,-1.5385849475860596,-0.1710372269153595,0.0183254163712263,0.0830752253532409,delete
8.793622970581055,-5.61116886138916,-0.4953142702579498,-0.1270562261343002,-0.0195471122860908,0.0965138673782348,delete
8.779266357421875,-5.6925249099731445,0.1004985496401786,0.0415376126766204,-0.007330167107284,0.1331647038459777,delete
8.781659126281738,-7.310072898864746,0.12921242415905,0.2064663618803024,0.0952921733260154,0.3090887069702148,delete
8.781659126281738,-7.310072898864746,0.12921242415905,0.2785463333129883,0.1649287492036819,0.4446967840194702,delete
9.07119083404541,-9.535398483276367,0.0789631456136703,0.448361873626709,0.3958290219306946,0.7879929542541504,delete
9.59043312072754,-11.06680393218994,0.7226324081420898,0.4410317242145538,0.6865922808647156,1.2424633502960205,delete
10.202995300292969,-11.04766082763672,1.1102697849273682,0.2858764827251434,0.8515210747718811,1.4391560554504397,delete
10.131211280822754,-11.088340759277344,1.0528419017791748,0.0965138673782348,1.1251806020736694,2.021904230117798,delete
10.131211280822754,-11.088340759277344,1.0528419017791748,-0.0818535313010215,1.2522368431091309,2.3908562660217285,delete
10.13599681854248,-12.600604057312012,0.0669990330934524,-0.8380824327468872,1.2510151863098145,2.905189514160156,delete
11.148160934448242,-16.63968849182129,0.6197410225868225,-0.8588511943817139,1.1972606182098389,3.5197017192840576,delete
12.131609916687012,-17.855243682861328,-0.4091726541519165,-0.7232431173324585,1.1508362293243408,3.869106531143189,delete
12.335000991821287,-16.99382781982422,-0.729810893535614,-0.1575985848903656,1.1129636764526367,4.39199161529541,delete
12.335000991821287,-16.99382781982422,-0.729810893535614,0.3127537965774536,0.95658677816391,4.8232502937316895,delete
12.083754539489746,-16.512868881225586,-0.1651047617197036,0.5851916074752808,0.8979454636573792,4.990622043609619,delete
11.385049819946287,-15.96730613708496,-0.430708110332489,0.9064972996711732,0.8087617754936218,5.254508018493652,delete
10.54516887664795,-13.04806137084961,-0.0382851622998714,0.8258654475212097,0.7354600429534912,5.362017154693604,delete
7.946564197540283,-8.599804878234863,0.2081755697727203,0.9419264793395996,0.7488986849784851,5.404776096343994,delete
5.388636112213135,-5.560920238494873,0.2703889608383178,1.1545013189315796,0.7769976854324341,5.316814422607422,delete
5.388636112213135,-5.560920238494873,0.2703889608383178,1.2168077230453491,0.813648521900177,5.194645404815674,delete
3.900300979614258,-4.216153621673584,0.5120640397071838,1.288887619972229,0.8893935680389404,4.803702354431152,delete
3.3547375202178955,-3.5365920066833496,0.7034898400306702,1.2180293798446655,0.8576295375823975,4.322355270385742,delete
3.3930225372314453,-2.9790639877319336,1.1198409795761108,1.1545013189315796,0.786771297454834,4.091454982757568,delete
2.555534601211548,-2.8115665912628174,1.0289137363433838,1.1850436925888062,0.726908266544342,3.529475212097168,delete
2.555534601211548,-2.8115665912628174,1.0289137363433838,1.225359559059143,0.7317950129508972,3.2277169227600098,delete
1.244267821311951,-2.620140790939331,0.7034898400306702,1.273005723953247,0.6988092660903931,2.690171241760254,delete
0.397208571434021,-3.13220477104187,0.1603191047906875,1.1532796621322632,0.5827482342720032,2.212488889694214,delete
0.1196411252021789,-4.00319242477417,0.1698903888463974,1.045770525932312,0.5363238453865051,1.9889185428619385,delete
-0.2033899277448654,-4.362115383148193,0.6675975918769836,0.8674030900001526,0.494786262512207,1.572320818901062,delete
-0.6843472719192505,-4.776073932647705,1.5960125923156738,0.5876350998878479,0.5338804721832275,1.2168077230453491,delete
-0.6843472719192505,-4.776073932647705,1.5960125923156738,0.4471401870250702,0.5082249045372009,1.0494356155395508,delete
-0.9116654396057128,-5.515456199645996,2.069791555404663,0.287098228931427,0.4080459475517273,0.7611156702041626,delete
-1.215553879737854,-6.089733123779297,1.5864413976669312,0.1844758540391922,0.3457395434379577,0.5277720093727112,delete
-1.529013752937317,-6.75493860244751,0.8422735333442688,0.1038440242409706,0.3274141252040863,0.4520269632339477,delete
-1.8472589254379272,-7.592426776885986,1.3304094076156616,-0.0513111688196659,0.3457395434379577,0.3261924386024475,delete
-1.8472589254379272,-7.592426776885986,1.3304094076156616,-0.0549762547016143,0.3481829464435577,0.2773246467113495,delete
-2.0171494483947754,-8.38444995880127,2.447857618331909,0.1185043603181839,0.3445178270339966,0.1673721522092819,delete
-2.045863389968872,-8.843873023986816,2.5052852630615234,0.3298574984073639,0.3726168274879455,0.0989572554826736,delete
-2.392822742462158,-8.748159408569336,2.12961220741272,0.3457395434379577,0.3823903799057007,0.0794101431965828,delete
-2.63449764251709,-8.432307243347168,2.1535403728485107,0.21135313808918,0.3567348122596741,0.0598630309104919,delete
-2.63449764251709,-8.432307243347168,2.1535403728485107,0.0207688063383102,0.3274141252040863,0.0329857505857944,delete
-2.857030153274536,-8.080562591552734,2.280359983444214,-0.0635281130671501,0.3151971697807312,0.0293206684291362,delete
-2.909672498703003,-8.403593063354492,2.368894338607788,-0.1649287492036819,0.2736595571041107,0.0195471122860908,delete
-3.160918712615967,-8.614161491394043,2.1822540760040283,-0.1612636744976043,0.2663294076919555,0.0061084721237421,delete
-3.414557933807373,-8.61176872253418,1.7491532564163208,-0.1136175915598869,0.2626643180847168,-0.031764056533575,delete
-3.814159393310547,-8.84626579284668,1.8209381103515625,0.0635281130671501,0.2968717515468597,-0.1038440242409706,delete
-3.88594388961792,-8.506484031677246,2.256431579589844,0.2150182276964187,0.2663294076919555,-0.1343863904476165,delete
-4.048655986785889,-8.298308372497559,2.3497519493103027,0.3689517080783844,0.2162399291992187,-0.152711808681488,delete
-4.053441524505615,-8.772088050842285,2.2947168350219727,0.2528907656669616,0.1539334952831268,-0.1429382413625717,delete
-4.321437358856201,-9.245866775512695,1.801795244216919,0.130721315741539,0.1123958900570869,-0.128277912735939,delete
-4.321437358856201,-9.245866775512695,1.801795244216919,-0.0500894747674465,0.069636583328247,-0.1160609796643257,delete
-4.323830604553223,-9.533005714416504,1.954936146736145,-0.1099525094032287,0.0525328628718853,-0.1099525094032287,delete
-4.553541660308838,-9.286543846130373,1.660618782043457,-0.1062874197959899,0.0280989725142717,-0.1209477484226226,delete
-4.773681163787842,-9.15493869781494,1.2323036193847656,-0.0647498071193695,0.0183254163712263,-0.1038440242409706,delete
-4.682754039764404,-9.305686950683594,1.131805181503296,-0.0818535313010215,0.0122169442474842,-0.0818535313010215,delete
-4.9363932609558105,-9.523433685302734,0.7369893789291382,-0.2345653474330902,-0.0390942245721817,-0.0195471122860908,delete
-4.9363932609558105,-9.523433685302734,0.7369893789291382,-0.3628432750701904,-0.0977355539798736,0.0219905003905296,delete
-5.42692232131958,-9.738788604736328,0.1435693651437759,-0.3762818872928619,-0.130721315741539,0.0305423624813556,delete
-5.857630252838135,-9.803394317626951,-0.5862415432929993,-0.31641885638237,-0.2137965410947799,0.069636583328247,delete
-6.62333345413208,-9.853643417358398,-0.8398807048797607,-0.2443388998508453,-0.3115321099758148,0.1331647038459777,delete
-6.781259536743164,-9.568897247314451,-1.007378339767456,-0.2516690790653229,-0.3432961404323578,0.155155211687088,delete
-6.781259536743164,-9.568897247314451,-1.007378339767456,-0.4251496791839599,-0.4532486498355865,0.2406738102436065,delete
-6.240481376647949,-10.28913688659668,-2.029113531112671,-0.5693095922470093,-0.5815265774726868,0.3005368411540985,delete
-6.448657035827637,-11.203195571899414,-3.314059257507324,-0.818535327911377,-0.891836941242218,0.4080459475517273,delete
-6.809973239898682,-11.150553703308104,-3.967299938201904,-0.8307521939277649,-1.227802872657776,0.4923428893089294,delete
-6.137589931488037,-10.53799057006836,-3.8213374614715576,-0.7647807598114014,-1.414722204208374,0.5448757410049438,delete
-6.137589931488037,-10.53799057006836,-3.8213374614715576,-0.6487197875976562,-1.7983342409133911,0.6902573704719543,delete
-5.745166778564453,-10.224532127380373,-2.5363922119140625,-0.8075400590896606,-2.2344791889190674,0.836860716342926,delete
-6.57547664642334,-10.401599884033203,-3.2446675300598145,-0.9541434049606324,-2.345653295516968,0.8564078211784363,delete
-6.685546875,-10.037891387939451,-4.273581027984619,-1.0970816612243652,-2.4568276405334477,0.8637380003929138,delete
-4.620540142059326,-11.030912399291992,-4.1036906242370605,-1.4342693090438845,-2.8196709156036377,0.8832851052284241,delete
-2.4023938179016118,-11.693723678588867,-2.8929224014282227,-1.650509238243103,-3.2668111324310303,0.9028322100639344,delete
-2.4023938179016118,-11.693723678588867,-2.8929224014282227,-1.6517308950424194,-3.425631284713745,0.8832851052284241,delete
-2.63449764251709,-11.44008445739746,-2.1056838035583496,-1.2290246486663818,-3.5258102416992188,0.8441908955574036,delete
-2.9288151264190674,-11.612367630004885,-2.414358139038086,-0.6768187284469604,-3.633319616317749,0.790436327457428,delete
0.1435693651437759,-12.44507122039795,-1.954936146736145,-0.6584933400154114,-3.737163543701172,0.7928797006607056,delete
2.249253273010254,-13.299307823181152,-1.325623631477356,-1.2925527095794678,-4.058469295501709,0.8502993583679199,delete
2.249253273010254,-13.299307823181152,-1.325623631477356,-1.839871883392334,-4.284482479095459,0.8588511943817139,delete
3.5748770236968994,-13.495519638061523,-1.160519003868103,-2.5667803287506104,-4.753612995147705,0.7660024166107178,delete
4.8502516746521,-14.225330352783203,-1.5649060010910034,-2.095206022262573,-5.067588806152344,0.7488986849784851,delete
8.250452041625977,-15.400206565856934,2.644068956375122,-1.5112361907958984,-5.019942760467529,0.8295305371284485,delete
9.781858444213867,-13.469198226928713,8.944371223449707,-0.1197260618209838,-4.332128524780273,1.077534556388855,delete
5.824130058288574,-9.65503978729248,10.439885139465332,0.3799469769001007,-3.5282537937164307,1.2913310527801514,delete
5.824130058288574,-9.65503978729248,10.439885139465332,0.1478250324726104,-3.222830057144165,1.4281609058380127,delete
5.398207664489746,-6.975078105926514,8.968299865722656,-0.6902573704719543,-2.8880856037139893,1.4513731002807615,delete
4.907679080963135,-5.458028793334961,9.087940216064451,-1.0494356155395508,-2.554563045501709,1.1178505420684814,delete
3.862015962600708,-4.828716278076172,8.71944522857666,-0.9700254201889038,-2.28579044342041,0.965138614177704,delete
1.4763716459274292,-5.12303352355957,9.236295700073242,-0.4923428893089294,-1.5320048332214355,0.6193991303443909,delete
1.4763716459274292,-5.12303352355957,9.236295700073242,-0.2834331095218658,-1.1703832149505615,0.4434750974178314,delete
-0.0454636327922344,-5.659025192260742,8.315058708190918,0.1172826737165451,-0.8075400590896606,0.1453816443681717,delete
-0.552742063999176,-6.235695838928223,6.9583282470703125,0.2064663618803024,-0.6694886088371277,-0.0256555844098329,delete
-0.6125625967979431,-6.821937084197998,6.759723663330078,0.0928487852215766,-0.5900784730911255,-0.100178949534893,delete
-2.0650060176849365,-7.482356548309326,5.570490837097168,-0.2993151545524597,-0.2675510942935943,-0.2321219593286514,delete
-3.515056610107422,-8.032705307006836,4.893322467803955,-0.4923428893089294,0.0647498071193695,-0.3359659910202026,delete
-3.515056610107422,-8.032705307006836,4.893322467803955,-0.4520269632339477,0.1563768982887268,-0.3469612300395965,delete
-3.072384119033813,-9.291330337524414,4.465007305145264,-0.1026223376393318,0.1844758540391922,-0.3323009014129638,delete
-3.304487943649292,-9.7005033493042,3.5437703132629395,0.0818535313010215,0.1893626451492309,-0.3042019307613373,delete
-4.261617183685303,-9.745966911315918,2.7589242458343506,0.282211422920227,0.2150182276964187,-0.2736595571041107,delete
-3.249453067779541,-9.942178726196287,2.617748022079468,0.1966928243637085,0.1429382413625717,-0.2260134816169738,delete
-3.249453067779541,-9.942178726196287,2.617748022079468,0.1038440242409706,0.0867403075098991,-0.1832541674375534,delete
-2.4502503871917725,-9.985249519348145,2.596212387084961,-0.0256555844098329,0.0635281130671501,-0.1026223376393318,delete
-3.469593048095703,-9.90867805480957,2.809173583984375,0.0439810007810592,0.0684148892760276,-0.0415376126766204,delete
-3.749552965164185,-9.78664493560791,2.749353408813477,0.155155211687088,0.0415376126766204,-0.007330167107284,delete
-3.089133977890014,-9.355937004089355,3.321237564086914,0.2895416021347046,-0.0244338884949684,0.0305423624813556,delete
-3.089133977890014,-9.355937004089355,3.321237564086914,0.1380514800548553,-0.0415376126766204,0.0781884491443634,delete
-2.7804601192474365,-9.049654960632324,3.706482172012329,0.0598630309104919,-0.0256555844098329,0.0806318372488021,delete
-3.359522819519043,-8.609375953674316,3.684947013854981,0.0085518611595034,0.0012216945178806,0.0549762547016143,delete
-3.3092737197875977,-8.49452018737793,3.689732551574707,0.0256555844098329,-0.0048867780715227,0.0452026948332786,delete
-2.8594231605529785,-8.621339797973633,3.783052444458008,0.1038440242409706,-0.0244338884949684,0.0195471122860908,delete
-2.6560330390930176,-8.784051895141602,3.94097900390625,0.1869192570447921,-0.0146603342145681,0.0097735561430454,delete
-2.6560330390930176,-8.784051895141602,3.94097900390625,0.2015795856714248,0.007330167107284,0.0097735561430454,delete
-2.9862425327301025,-8.286344528198242,4.051048755645752,0.1832541674375534,0.0623064190149307,-0.0219905003905296,delete
-3.208775281906128,-8.307880401611328,4.031906127929688,0.0952921733260154,0.069636583328247,-0.0513111688196659,delete
-2.825923442840576,-8.422735214233398,4.091726779937744,0.0549762547016143,0.0623064190149307,-0.0561979450285434,delete
-2.96949315071106,-8.652446746826172,3.996013641357422,0.0219905003905296,0.0879620015621185,-0.0781884491443634,delete
-2.96949315071106,-8.652446746826172,3.996013641357422,0.0549762547016143,0.1111741960048675,-0.0928487852215766,delete
-3.0652055740356445,-8.635696411132812,3.814159393310547,0.1673721522092819,0.1258345395326614,-0.1185043603181839,delete
-3.0101709365844727,-8.827122688293457,3.847658634185791,0.2528907656669616,0.1404948681592941,-0.1478250324726104,delete
-2.7948169708251958,-8.915657043457031,3.964907169342041,0.2602209150791168,0.1588202863931656,-0.1453816443681717,delete
-2.7014968395233154,-9.1716890335083,4.316651821136475,0.282211422920227,0.2199050188064575,-0.1466033309698104,delete
-2.3330020904541016,-9.221939086914062,4.790431022644043,0.2919849753379822,0.3457395434379577,-0.1698155403137207,delete
-2.3330020904541016,-9.221939086914062,4.790431022644043,0.3323009014129638,0.4324798583984375,-0.2101314514875412,delete
-2.2779672145843506,-9.121439933776855,5.328815937042236,0.3591781854629516,0.63283771276474,-0.2675510942935943,delete
-2.3162522315979004,-8.781659126281738,4.704289436340332,0.310310423374176,0.6438329815864563,-0.2394521236419677,delete
-2.8187451362609863,-9.516255378723145,3.696911096572876,0.2382304221391677,0.5534276366233826,-0.175924003124237,delete
-2.902493953704834,-10.585847854614258,3.438485860824585,0.3897205293178558,0.4092676639556885,-0.040315918624401,delete
-2.902493953704834,-10.585847854614258,3.438485860824585,0.5766398310661316,0.365286648273468,0.0109952501952648,delete
-2.376072883605957,-10.671989440917969,3.759124279022217,0.9773555994033812,0.3432961404323578,-0.0061084721237421,delete
-1.6031911373138428,-10.394421577453612,4.027120590209961,1.2131426334381104,0.4080459475517273,0.0684148892760276,delete
-1.411765456199646,-9.454042434692385,4.701896190643311,1.1911520957946775,0.4740174412727356,0.0940704718232154,delete
-2.392822742462158,-7.872386455535889,5.493920803070068,0.8478559851646423,0.758672297000885,0.1466033309698104,delete
-2.392822742462158,-7.872386455535889,5.493920803070068,0.7171346545219421,0.8796200752258301,0.1014006435871124,delete
-2.691925525665283,-7.568498134613037,6.829115867614746,0.4581354260444641,0.9089407324790956,0.1160609796643257,delete
-1.919043779373169,-7.039684295654297,6.295516490936279,0.0928487852215766,0.8820634484291077,0.1734806150197982,delete
-1.8065810203552248,-6.245267391204834,5.12303352355957,-0.0830752253532409,0.9443698525428772,0.175924003124237,delete
-1.3351951837539673,-6.2189459800720215,5.709274768829346,-0.1710372269153595,1.0286667346954346,0.0549762547016143,delete
-0.7202396392822266,-7.838886737823486,6.290730953216553,0.2406738102436065,1.2791141271591189,-0.1795890927314758,delete
-0.7202396392822266,-7.838886737823486,6.290730953216553,0.3909422159194946,1.4415994882583618,-0.261442631483078,delete
-0.1028913781046867,-8.169095993041992,6.223731517791748,0.7647807598114014,1.6773865222930908,-0.3042019307613373,delete
0.5647061467170715,-7.733603000640869,5.986842632293701,1.1080769300460815,2.068328857421875,-0.3188622593879699,delete
0.6939185857772827,-7.142575740814209,5.26899528503418,1.237576603889465,2.288233757019043,-0.3591781854629516,delete
-0.0909272655844688,-6.424728870391846,5.8959150314331055,1.0738694667816162,2.3065593242645264,-0.4850127100944519,delete
-0.0909272655844688,-6.424728870391846,5.8959150314331055,0.8747332096099854,2.2405877113342285,-0.5082249045372009,delete
-0.82791668176651,-6.63769006729126,5.570490837097168,0.3017585575580597,2.208823680877685,-0.5815265774726868,delete
-0.6293123364448547,-7.5804619789123535,4.242474555969238,-0.0329857505857944,2.373752355575561,-0.6927007436752319,delete
0.48574298620224,-9.205188751220703,3.187239646911621,0.0354291386902332,2.5032520294189453,-0.786771297454834,delete
-1.5720844268798828,-11.22233772277832,2.7038896083831787,0.522885262966156,2.828222751617432,-1.022558331489563,delete
-3.589233875274658,-11.918648719787598,3.086741209030152,1.268118977546692,2.97604775428772,-1.087308049201965,delete
-3.589233875274658,-11.918648719787598,3.086741209030152,1.6334055662155151,3.000481605529785,-0.9810206294059752,delete
-3.1657044887542725,-11.19362449645996,2.313859462738037,1.90339994430542,3.059123039245605,-0.8832851052284241,delete
-3.981656789779663,-10.284351348876951,1.2514461278915403,1.8911830186843872,3.0542361736297607,-0.9480348825454712,delete
-4.395615100860596,-9.135796546936035,1.4021940231323242,1.4745851755142212,2.899080991744995,-0.9590301513671876,delete
-4.744967460632324,-8.475377082824707,0.9451649785041808,0.966360330581665,2.608317613601685,-0.9455915093421936,delete
-4.744967460632324,-8.475377082824707,0.9451649785041808,0.785549521446228,2.5032520294189453,-0.9822423458099364,delete
-6.757331371307373,-8.980262756347656,0.0239282250404357,0.7061393857002258,2.4775965213775635,-1.1264023780822754,delete
-6.972684860229492,-8.958727836608887,-0.6412764191627502,0.8405258059501648,2.2369225025177,-1.0567656755447388,delete
-6.197411060333252,-7.300501823425293,0.2177468687295913,0.9187142252922058,2.0524466037750244,-0.9846857786178588,delete
-6.63051176071167,-5.8959150314331055,1.4883356094360352,1.180156946182251,1.715259075164795,-0.9333745837211608,delete
-6.63051176071167,-5.8959150314331055,1.4883356094360352,1.2241379022598269,1.6529526710510254,-1.1019684076309204,delete
-7.331608772277832,-5.410171985626221,-0.413958340883255,0.9309312105178832,1.666391372680664,-1.211920976638794,delete
-6.192624568939209,-7.537391662597656,-0.4354937374591827,0.0342074446380138,1.4721418619155884,-1.241241693496704,delete
-5.170889854431152,-9.15493869781494,-1.7467604875564575,-0.3750602006912231,1.360967755317688,-1.2192511558532717,delete
-6.058626651763916,-11.57168960571289,-3.907479047775269,-0.785549521446228,1.220472812652588,-1.189930438995361,delete
-6.211767196655273,-13.41416358947754,-3.3858442306518555,-0.6658235192298889,0.965138614177704,-0.971247136592865,delete
-6.211767196655273,-13.41416358947754,-3.3858442306518555,-0.3017585575580597,0.813648521900177,-0.8637380003929138,delete
-5.687739372253418,-12.90927791595459,-1.9884356260299685,0.3371876776218414,0.605960488319397,-0.5729747414588928,delete
-5.960521221160889,-11.198410987854004,-0.8662018179893494,0.3237490355968475,0.4654656052589416,-0.282211422920227,delete
-6.314659118652344,-10.609774589538574,-0.2321037948131561,0.1478250324726104,0.3555130958557129,-0.1710372269153595,delete
-5.898308277130127,-10.363314628601074,0.2871387302875519,-0.0867403075098991,0.1502684205770492,-0.0256555844098329,delete
-5.898308277130127,-10.363314628601074,0.2871387302875519,-0.1514901220798492,0.0818535313010215,0.0171037223190069,delete
-5.498706817626953,-9.525827407836914,0.7178468108177185,-0.2101314514875412,0.0158820282667875,0.031764056533575,delete
-5.12303352355957,-8.884550094604492,2.1439690589904785,-0.2345653474330902,-0.0598630309104919,0.0366508327424526,delete
-4.369294166564941,-8.657232284545898,2.7900311946868896,-0.200357899069786,-0.0965138673782348,0.0818535313010215,delete
-4.139583110809326,-8.839086532592773,3.1513471603393555,0.0232121963053941,-0.1905843466520309,0.129499614238739,delete
-4.110869407653809,-9.008977890014648,3.074777126312256,0.2699944972991943,-0.1918060332536697,0.0989572554826736,delete
-4.110869407653809,-9.008977890014648,3.074777126312256,0.4007157981395721,-0.200357899069786,0.0623064190149307,delete
-4.127618789672852,-9.018548011779783,3.10109806060791,0.6731536388397217,-0.199136197566986,-0.0415376126766204,delete
-4.005585193634033,-9.049654960632324,3.0005996227264404,0.8796200752258301,-0.2137965410947799,-0.0916270837187767,delete
-4.039084434509277,-8.49691390991211,2.8666017055511475,0.9321528673171996,-0.2211267054080963,-0.1258345395326614,delete
-3.828516006469727,-8.441878318786621,3.5198421478271484,0.8099834322929382,-0.2089097648859024,-0.1466033309698104,delete
-3.828516006469727,-8.441878318786621,3.5198421478271484,0.6413896083831787,-0.1905843466520309,-0.0879620015621185,delete
-3.2614171504974365,-8.815157890319824,3.6323046684265137,0.2797680497169494,-0.175924003124237,0.0830752253532409,delete
-3.0005996227264404,-8.815157890319824,4.319044589996338,0.1123958900570869,-0.1734806150197982,0.0904053896665573,delete
-3.235095977783203,-9.34157943725586,4.4004011154174805,0.1966928243637085,-0.1710372269153595,0.0647498071193695,delete
-2.8354949951171875,-8.891729354858398,3.9912283420562735,0.256555825471878,-0.2467822879552841,0.1197260618209838,delete
-2.4095723628997803,-8.166703224182129,3.34995174407959,0.3567348122596741,-0.3359659910202026,0.1246128380298614,delete
-2.4095723628997803,-8.166703224182129,3.34995174407959,0.4202629029750824,-0.3481829464435577,0.1392731666564941,delete
-2.1918253898620605,-7.377072334289551,2.9168508052825928,0.5766398310661316,-0.3200839459896087,0.1026223376393318,delete
-2.232503652572632,-6.259624004364014,2.6392831802368164,0.6035171151161194,-0.3078669905662536,-0.0427593067288398,delete
-1.797009825706482,-5.295316696166992,2.3066811561584477,0.549762487411499,-0.3359659910202026,-0.1478250324726104,delete
-1.3304094076156616,-4.275973796844482,2.048256158828736,0.3408527672290802,-0.4679089784622192,-0.4434750974178314,delete
-1.3304094076156616,-4.275973796844482,2.048256158828736,0.1856975704431533,-0.5082249045372009,-0.6145123243331909,delete
-1.244267821311951,-3.426522016525269,1.7850456237792969,0.0097735561430454,-0.5705313086509705,-0.98590749502182,delete
-1.1653046607971191,-3.3308091163635254,2.167897224426269,-0.0354291386902332,-0.6365028619766235,-1.3963968753814695,delete
-0.861416220664978,-3.6299118995666495,2.2755744457244877,-0.0733016654849052,-0.7146912813186646,-1.5283397436141968,delete
-0.7441678047180176,-4.778466701507568,2.364108800888061,-0.1197260618209838,-0.833195686340332,-1.7897825241088867,delete
-0.7441678047180176,-4.778466701507568,2.364108800888061,-0.1466033309698104,-0.8478559851646423,-1.91317355632782,delete
-0.662811815738678,-6.32662296295166,2.328216552734375,-0.463022232055664,-0.8991671204566956,-2.0927627086639404,delete
-0.2991028428077698,-7.068397998809815,2.0410776138305664,-0.4300364553928375,-0.8527427315711975,-2.241809368133545,delete
-0.1914258003234863,-9.396614074707031,2.1990041732788086,-0.4923428893089294,-0.7623373866081238,-2.19782829284668,delete
-0.4043869972229004,-12.430712699890137,1.7706886529922483,-0.8307521939277649,-0.5986303091049194,-2.0988712310791016,delete
-0.3661018908023834,-15.02453327178955,1.4404792785644531,-1.012784719467163,-0.4446967840194702,-1.9498244524002075,delete
-0.3661018908023834,-15.02453327178955,1.4404792785644531,-0.8796200752258301,-0.3298574984073639,-1.7873390913009644,delete
-0.2225324809551239,-17.053647994995117,1.2035897970199585,-0.7061393857002258,-0.0684148892760276,-1.3340904712677002,delete
-0.3014956414699554,-18.594623565673828,2.723031997680664,-0.7611156702041626,0.2418954968452453,-0.8527427315711975,delete
-1.430907964706421,-17.336000442504883,3.565305471420288,-0.8148701786994934,0.2663294076919555,-0.6682668924331665,delete
-2.6967110633850098,-14.92403507232666,3.967299938201904,-0.7159129977226257,0.3542913794517517,-0.3274141252040863,delete
-2.6967110633850098,-14.92403507232666,3.967299938201904,-0.6731536388397217,0.2773246467113495,-0.1270562261343002,delete
-3.2135608196258545,-12.53599739074707,4.086941242218018,-0.3200839459896087,0.1820324808359146,0.2761029601097107,delete
-3.696911096572876,-11.669795989990234,4.326223373413086,-0.0855186134576797,-0.0305423624813556,0.4104893505573272,delete
-3.280559778213501,-11.212766647338867,5.553741931915283,0.031764056533575,-0.1087308079004287,0.3640649616718292,delete
-3.062812805175781,-9.789037704467772,6.192624568939209,0.2260134816169738,-0.256555825471878,0.2858764827251434,delete
-2.636890411376953,-9.05683422088623,6.118447780609131,0.2064663618803024,-0.3249707520008087,0.2932066619396209,delete
-2.636890411376953,-9.05683422088623,6.118447780609131,0.1600419729948043,-0.3567348122596741,0.2980934381484985,delete
-2.0003998279571533,-9.63828945159912,5.723631858825684,0.1160609796643257,-0.4019374847412109,0.3017585575580597,delete
-1.5361920595169067,-9.611968994140623,5.302494525909424,0.1441599577665329,-0.3823903799057007,0.2980934381484985,delete
-1.3830513954162598,-9.53779125213623,4.455435752868652,0.3982723951339721,-0.2932066619396209,0.3042019307613373,delete
-1.0049854516983032,-9.609575271606444,3.675375461578369,0.5522059202194214,-0.2076880484819412,0.3396310806274414,delete
-1.0049854516983032,-9.609575271606444,3.675375461578369,0.5522059202194214,-0.1575985848903656,0.3579564988613128,delete
-0.4019941985607147,-9.473184585571287,3.1752755641937256,0.3738385140895843,0.007330167107284,0.3042019307613373,delete
-0.1555334776639938,-9.415757179260254,2.5938196182250977,0.0268772784620523,0.1368297785520553,0.2431172132492065,delete
-0.0167497582733631,-9.781858444213867,2.383251428604126,-0.1062874197959899,0.1795890927314758,0.258999228477478,delete
0.0406779870390892,-10.310672760009766,2.1272192001342773,-0.3396310806274414,0.2174616158008575,0.3261924386024475,delete
0.0406779870390892,-10.310672760009766,2.1272192001342773,-0.3359659910202026,0.1856975704431533,0.3616215586662292,delete
0.0047856452874839,-10.365707397460938,2.1894328594207764,-0.2174616158008575,0.1649287492036819,0.3530696928501129,delete
-0.0358923412859439,-10.01874828338623,2.2205395698547363,0.0623064190149307,0.069636583328247,0.2858764827251434,delete
-0.2512463629245758,-9.31765079498291,2.562713146209717,0.1624853760004043,0.0207688063383102,0.261442631483078,delete
-0.4163511395454407,-8.992227554321289,2.641676187515259,0.2761029601097107,-0.0952921733260154,0.2443388998508453,delete
-0.7082754969596863,-8.894121170043945,2.785245418548584,0.2125748395919799,-0.2370087206363678,0.2296785563230514,delete
-0.7082754969596863,-8.894121170043945,2.785245418548584,0.1930277347564697,-0.2761029601097107,0.2333436459302902,delete
-0.760917603969574,-9.090332984924316,2.816352128982544,0.1502684205770492,-0.3261924386024475,0.2406738102436065,delete
-0.6867401003837585,-9.111868858337402,3.218346357345581,0.175924003124237,-0.2712161839008331,0.2247917801141739,delete
-0.8542376756668091,-8.999405860900879,3.522234916687012,0.1661504507064819,-0.2272351831197738,0.1893626451492309,delete
-1.3040882349014282,-8.786444664001465,3.91705060005188,0.1356080919504165,-0.1099525094032287,0.0830752253532409,delete
-1.3040882349014282,-8.786444664001465,3.91705060005188,0.1087308079004287,-0.0745233595371246,0.0378725305199623,delete
-1.4763716459274292,-8.532805442810059,3.94097900390625,0.0232121963053941,-0.0781884491443634,-0.0061084721237421,delete
-1.356730580329895,-8.774479866027832,3.383451223373413,-0.0671931952238082,-0.0830752253532409,0.0354291386902332,delete
-0.9332008361816406,-9.812965393066406,3.613162040710449,-0.0928487852215766,-0.0598630309104919,0.0745233595371246,delete
-1.0791629552841189,-10.341779708862305,3.541377305984497,-0.1417165547609329,0.0354291386902332,0.1014006435871124,delete
-1.179661512374878,-10.55474090576172,4.029513359069824,-0.0525328628718853,0.1478250324726104,0.1612636744976043,delete
-1.179661512374878,-10.55474090576172,4.029513359069824,-0.007330167107284,0.200357899069786,0.1881409436464309,delete
-1.241874933242798,-10.542776107788086,4.108476161956787,0.0574196390807628,0.2260134816169738,0.1820324808359146,delete
-1.2658032178878784,-10.224532127380373,3.99362063407898,0.0842969194054603,0.3042019307613373,0.2748812437057495,delete
-1.3974084854125977,-10.796415328979492,3.73758864402771,0.0659715011715889,0.3579564988613128,0.3213056325912475,delete
-1.2658032178878784,-11.45683479309082,3.972085475921631,-0.1441599577665329,0.5033381581306458,0.3811686933040619,delete
-1.2658032178878784,-11.45683479309082,3.972085475921631,-0.2467822879552841,0.6303943395614624,0.4178195297718048,delete
-1.5912269353866575,-11.44965648651123,4.285545349121094,-0.2321219593286514,0.95658677816391,0.4825693070888519,delete
-2.792424201965332,-11.207980155944824,5.161318302154541,0.0207688063383102,1.0433270931243896,0.4740174412727356,delete
-3.0963122844696045,-10.269994735717772,5.410171985626221,0.2089097648859024,1.099524974822998,0.5473191142082214,delete
-3.7184462547302246,-9.343972206115724,5.063212871551514,0.517998456954956,1.227802872657776,0.5974085927009583,delete
-3.7184462547302246,-9.343972206115724,5.063212871551514,0.6426112651824951,1.382958173751831,0.5534276366233826,delete
-4.919642925262451,-8.578269004821777,4.926821708679199,0.6071821451187134,1.4159438610076904,0.5070031881332397,delete
-6.123232841491699,-7.685746192932129,5.077569961547852,0.175924003124237,1.2058125734329224,0.5974085927009583,delete
-5.625525951385498,-7.649853706359863,4.4721856117248535,-0.0366508327424526,1.0628741979599,0.6927007436752319,delete
-5.556134223937988,-8.360522270202637,3.5676987171173096,-0.3726168274879455,0.7232431173324585,0.7317950129508972,delete
-6.216552734375,-7.980063438415527,2.9288151264190674,-0.3713951408863067,0.5607577562332153,0.6755970120429993,delete
-6.216552734375,-7.980063438415527,2.9288151264190674,-0.3445178270339966,0.4960079491138458,0.6951441764831543,delete
-6.27876615524292,-7.980063438415527,2.0171494483947754,-0.4337015450000763,0.3347443044185638,0.712247908115387,delete
-5.359922409057617,-7.836494445800781,1.8065810203552248,-0.601073682308197,0.2174616158008575,0.6377245187759399,delete
-5.1637115478515625,-7.977671146392822,2.1415762901306152,-0.5387672781944275,0.1441599577665329,0.5448757410049438,delete
-3.862015962600708,-8.111669540405273,2.364108800888061,-0.5803048610687256,0.0940704718232154,0.554649293422699,delete
-3.862015962600708,-8.111669540405273,2.364108800888061,-0.5473191142082214,0.0965138673782348,0.5399889945983887,delete
-3.0149567127227783,-8.015955924987793,0.9930213689804076,-0.2773246467113495,0.1905843466520309,0.4581354260444641,delete
-3.1345977783203125,-7.853243827819824,0.4235295951366424,0.0574196390807628,0.2296785563230514,0.3225273489952087,delete
-3.35713005065918,-8.659625053405762,0.5288137793540955,0.2137965410947799,0.2247917801141739,0.235787034034729,delete
-2.342573404312134,-9.688538551330566,2.581855773925781,0.6951441764831543,0.0427593067288398,0.0537545569241046,delete
-0.8111668825149536,-9.724431037902832,2.146361827850342,0.6145123243331909,-0.0757450610399246,0.0329857505857944,delete
-0.8111668825149536,-9.724431037902832,2.146361827850342,0.2773246467113495,-0.1441599577665329,0.0867403075098991,delete
-1.031306505203247,-8.441878318786621,1.0049854516983032,-0.5839699506759644,-0.1136175915598869,0.069636583328247,delete
-2.3186452388763428,-9.097511291503906,0.3828516006469726,-0.8869501948356628,-0.1649287492036819,-0.0464243926107883,delete
-2.6249265670776367,-9.260223388671877,0.8063812851905823,-0.6829272508621216,-0.200357899069786,-0.1160609796643257,delete
-2.297109842300415,-8.989834785461426,2.0817556381225586,-0.6829272508621216,-0.235787034034729,-0.2333436459302902,delete
-2.297109842300415,-8.989834785461426,2.0817556381225586,0.1918060332536697,-0.200357899069786,-0.2626643180847168,delete
-2.122433662414551,-9.083154678344728,2.7349963188171387,0.1734806150197982,-0.2370087206363678,-0.2223483920097351,delete
-1.8951154947280884,-9.387042999267578,2.756531953811645,-0.0549762547016143,-0.3188622593879699,-0.1808107793331146,delete
-1.9238293170928955,-9.315258979797363,2.0554347038269043,-0.152711808681488,-0.3628432750701904,-0.178367406129837,delete
-2.093719720840454,-9.346364974975586,1.8975083827972408,-0.1905843466520309,-0.3261924386024475,-0.2015795856714248,delete
-2.2157537937164307,-8.796016693115234,2.8139593601226807,-0.0623064190149307,-0.1930277347564697,-0.2186833024024963,delete
-2.2157537937164307,-8.796016693115234,2.8139593601226807,-0.0366508327424526,-0.129499614238739,-0.1954711079597473,delete
-1.7347965240478516,-8.827122688293457,2.775674343109131,-0.0598630309104919,-0.0659715011715889,-0.1380514800548553,delete
-1.741974949836731,-9.650253295898438,2.553141593933105,-0.0891837030649185,-0.0476460866630077,-0.1160609796643257,delete
-1.8831514120101929,-8.994620323181152,2.1104695796966557,-0.21135313808918,-0.0158820282667875,-0.0549762547016143,delete
-2.0243279933929443,-8.910871505737305,2.0793628692626958,-0.3713951408863067,-0.0268772784620523,-0.0500894747674465,delete
-2.0243279933929443,-8.910871505737305,2.0793628692626958,-0.3775035738945007,-0.031764056533575,-0.0561979450285434,delete
-2.038684844970703,-8.96112060546875,2.469392776489258,-0.2602209150791168,-0.0048867780715227,-0.0708582773804664,delete
-2.007578134536743,-9.18843936920166,2.6967110633850098,-0.0928487852215766,-0.0085518611595034,-0.0610847249627113,delete
-2.2707886695861816,-8.707481384277344,2.687139749526977,-0.0415376126766204,-0.0048867780715227,-0.0513111688196659,delete
-2.622533798217773,-8.673982620239258,2.7732813358306885,-0.0720799788832664,-0.0122169442474842,-0.0427593067288398,delete
-2.622533798217773,-8.673982620239258,2.7732813358306885,-0.1062874197959899,-0.0293206684291362,-0.0476460866630077,delete
-2.775674343109131,-8.702695846557617,2.7014968395233154,-0.1392731666564941,-0.0244338884949684,-0.0794101431965828,delete
-2.8043880462646484,-8.683552742004395,2.644068956375122,-0.1160609796643257,0.0146603342145681,-0.1185043603181839,delete
-2.9766712188720703,-9.06879711151123,2.749353408813477,-0.0659715011715889,0.0280989725142717,-0.1453816443681717,delete
-3.1082763671875,-9.020941734313965,2.699103832244873,0.1148392781615257,0.0684148892760276,-0.2064663618803024,delete
-3.407379388809204,-8.915657043457031,2.452643394470215,0.1893626451492309,0.0879620015621185,-0.2186833024024963,delete
-3.407379388809204,-8.915657043457031,2.452643394470215,0.0928487852215766,0.0867403075098991,-0.2028012871742248,delete
-3.431307554244995,-9.339186668395996,2.1439690589904785,-0.1539334952831268,0.0708582773804664,-0.1832541674375534,delete
-3.565305471420288,-9.726823806762695,1.574477195739746,-0.2467822879552841,0.1050657257437706,-0.1820324808359146,delete
-4.113262176513672,-10.143176078796388,1.1533405780792236,-0.2174616158008575,0.1050657257437706,-0.1844758540391922,delete
-4.426721572875977,-10.478169441223145,1.031306505203247,-0.1246128380298614,0.0708582773804664,-0.1637070626020431,delete
-4.426721572875977,-10.478169441223145,1.031306505203247,-0.0794101431965828,0.0427593067288398,-0.1392731666564941,delete
-4.67078971862793,-10.566704750061035,0.7537391781806946,-0.0781884491443634,-0.0415376126766204,-0.0574196390807628,delete
-4.893322467803955,-10.403992652893066,0.2536391913890838,-0.1417165547609329,-0.1502684205770492,0.0268772784620523,delete
-5.079962730407715,-10.459028244018556,-0.4115655124187469,-0.1478250324726104,-0.200357899069786,0.0659715011715889,delete
-5.680561065673828,-10.308279991149902,-0.851844847202301,-0.1221694499254226,-0.2932066619396209,0.129499614238739,delete
-5.938986301422119,-10.15035343170166,-1.155733346939087,-0.0549762547016143,-0.3970507085323334,0.1612636744976043,delete
-5.601597785949707,-10.121639251708984,-1.7635102272033691,-0.0684148892760276,-0.4703523814678192,0.1966928243637085,delete
-5.584848403930664,-10.016355514526367,-2.232503652572632,-0.21135313808918,-0.6584933400154114,0.2968717515468597,delete
-6.369694232940674,-10.815558433532717,-3.263810157775879,-0.3494046330451965,-0.7696675062179565,0.3555130958557129,delete
-6.393621921539307,-11.045268058776855,-4.417150497436523,-0.5241069197654724,-0.910162389278412,0.3921639025211334,delete
-6.393621921539307,-11.045268058776855,-4.417150497436523,-0.6267292499542236,-1.1435059309005735,0.4495835602283478,delete
-5.864808082580566,-11.258230209350586,-5.436492443084717,-0.6694886088371277,-1.3084348440170288,0.4862344264984131,delete
-5.773881435394287,-11.514263153076172,-6.099304676055908,-0.7818844318389893,-1.7115939855575562,0.5632011890411377,delete
-4.967499732971191,-11.540583610534668,-5.788238048553467,-0.7647807598114014,-2.1196398735046387,0.63283771276474,delete
-3.950549840927124,-10.84427261352539,-5.9030938148498535,-0.7134696245193481,-2.3334364891052246,0.6768187284469604,delete
-3.950549840927124,-10.84427261352539,-5.9030938148498535,-0.7941014170646667,-2.736595630645752,0.7427902817726135,delete
-3.4815566539764404,-11.669795989990234,-6.972684860229492,-0.8771765828132629,-2.9467270374298096,0.7195780277252197,delete
-3.2374887466430664,-12.693923950195312,-9.150154113769531,-1.1654964685440063,-3.3633251190185547,0.6267292499542236,delete
-0.902094066143036,-14.110475540161133,-9.530611991882324,-1.6248536109924316,-3.9448513984680176,0.5583143830299377,delete
3.404986619949341,-15.677773475646973,-6.285945415496826,-1.8288766145706177,-4.350454330444336,0.5925218462944031,delete
7.223931312561035,-16.890933990478516,-3.641876220703125,-1.8972915410995483,-5.1274518966674805,0.7146912813186646,delete
7.223931312561035,-16.890933990478516,-3.641876220703125,-1.2925527095794678,-5.649115085601807,0.8820634484291077,delete
9.21715259552002,-16.12762451171875,-0.3014956414699554,-0.8539644479751587,-5.845808506011963,0.95658677816391,delete
10.925628662109377,-14.81396484375,2.854637384414673,-0.4972296357154846,-6.142679691314697,1.2607886791229248,delete
11.856435775756836,-12.713067054748535,5.795416355133057,-0.7574505805969238,-6.046165943145752,1.5295615196228027,delete
12.569498062133787,-9.906286239624023,8.956335067749023,-0.8234220743179321,-5.856802940368652,1.673721432685852,delete
12.569498062133787,-9.906286239624023,8.956335067749023,-0.6572716236114502,-5.166545867919922,1.8508671522140503,delete
12.04068374633789,-6.601797103881836,10.183852195739746,-0.4837909936904907,-4.848905086517334,1.8606407642364504,delete
9.274580955505373,-3.88594388961792,11.24626636505127,-0.1795890927314758,-4.141544342041016,1.7238109111785889,delete
7.491927623748779,-3.25663161277771,12.153146743774414,-0.1502684205770492,-3.142198085784912,1.374406337738037,delete
5.405385971069336,-2.895315170288086,11.365907669067385,-0.2125748395919799,-2.6913931369781494,1.187487006187439,delete
2.5363922119140625,-3.720839262008667,10.437491416931152,-0.1575985848903656,-1.8740792274475095,0.8148701786994934,delete
2.5363922119140625,-3.720839262008667,10.437491416931152,-0.1075091138482093,-1.1312891244888306,0.4471401870250702,delete
-0.0095712905749678,-5.273780822753906,9.324830055236816,-0.0109952501952648,-0.8283088207244873,0.2345653474330902,delete
-1.4093725681304932,-5.917449951171875,8.176274299621582,0.0268772784620523,-0.3384093642234802,-0.1160609796643257,delete
-1.978864312171936,-6.982256412506104,6.781259536743164,-0.1075091138482093,-0.1429382413625717,-0.2418954968452453,delete
-2.555534601211548,-8.262415885925293,5.546562671661377,-0.546097457408905,0.2699944972991943,-0.4251496791839599,delete
-2.555534601211548,-8.262415885925293,5.546562671661377,-0.7501204013824463,0.5705313086509705,-0.5204418301582336,delete
-3.407379388809204,-9.798608779907228,4.323830604553223,-0.6560499668121338,0.6487197875976562,-0.5485408306121826,delete
-3.641876220703125,-10.590633392333984,2.9048867225646973,-0.0525328628718853,0.6902573704719543,-0.6157339811325073,delete
-2.919243574142456,-10.760523796081545,2.1272192001342773,0.4850127100944519,0.5619794726371765,-0.6071821451187134,delete
-2.746960401535034,-11.050054550170898,2.1990041732788086,0.6157339811325073,0.494786262512207,-0.574196457862854,delete
-2.746960401535034,-11.050054550170898,2.1990041732788086,0.5338804721832275,0.4092676639556885,-0.4740174412727356,delete
-2.7182462215423584,-11.04766082763672,2.7972097396850586,0.393385648727417,0.388498842716217,-0.3213056325912475,delete
-2.565105676651001,-10.80120086669922,2.861815929412842,0.1417165547609329,0.3567348122596741,-0.2333436459302902,delete
-2.691925525665283,-10.461421012878418,3.0149567127227783,0.0171037223190069,0.3506263196468353,-0.1062874197959899,delete
-2.6703903675079346,-9.951749801635742,3.1728827953338623,0.0219905003905296,0.3506263196468353,-0.0745233595371246,delete
-2.665604591369629,-9.45164966583252,3.8356947898864746,0.0940704718232154,0.3591781854629516,-0.0305423624813556,delete
-2.665604591369629,-9.45164966583252,3.8356947898864746,0.1514901220798492,0.3677300214767456,-0.0122169442474842,delete
-2.3784656524658203,-9.087940216064451,4.146761417388916,0.1380514800548553,0.3530696928501129,0.0024433890357613,delete
-1.950150489807129,-9.432506561279297,3.9912283420562735,0.2528907656669616,0.3286358118057251,0.0525328628718853,delete
-1.9070796966552732,-8.858229637145996,3.907479047775269,0.4153760969638824,0.3115321099758148,0.0574196390807628,delete
-2.3306093215942383,-8.566305160522461,4.022334575653076,0.3750602006912231,0.333522617816925,0.0574196390807628,delete
-2.3306093215942383,-8.566305160522461,4.022334575653076,0.1502684205770492,0.3713951408863067,0.0146603342145681,delete
-2.1272192001342773,-8.606983184814453,4.063012599945068,0.0781884491443634,0.3811686933040619,-0.0232121963053941,delete
-1.921436548233032,-8.654839515686035,3.828516006469727,0.0415376126766204,0.393385648727417,-0.0733016654849052,delete
-2.1128623485565186,-8.662017822265625,3.804587841033936,0.100178949534893,0.4361449182033539,-0.1172826737165451,delete
-1.998006820678711,-8.47298526763916,4.048655986785889,0.1588202863931656,0.4422534108161926,-0.1356080919504165,delete
-1.7084753513336182,-8.82233715057373,4.223331928253174,0.2663294076919555,0.463022232055664,-0.1575985848903656,delete
-1.7084753513336182,-8.82233715057373,4.223331928253174,0.3579564988613128,0.5045598149299622,-0.1942494213581085,delete
-1.2921242713928225,-8.824729919433594,4.759324073791504,0.411711037158966,0.549762487411499,-0.2028012871742248,delete
-0.7776673436164856,-8.678767204284668,5.094319343566895,0.4984513521194458,0.6474980711936951,-0.2443388998508453,delete
-0.430708110332489,-8.638089179992676,5.362315654754639,0.4544703662395477,0.7049177289009094,-0.2492256760597229,delete
-0.2632104754447937,-8.63330364227295,4.984249591827393,0.2602209150791168,0.8417474627494812,-0.2895416021347046,delete
-0.2632104754447937,-8.63330364227295,4.984249591827393,0.003665083553642,1.0140063762664795,-0.3469612300395965,delete
-0.1579262912273407,-8.45862865447998,5.276174068450928,-0.0635281130671501,1.1129636764526367,-0.3872771561145782,delete
-0.0598205626010894,-8.413164138793945,5.407779216766357,-0.1075091138482093,1.347529053688049,-0.5021164417266846,delete
0.4331009089946747,-8.673982620239258,5.869593620300293,-0.0891837030649185,1.5674339532852173,-0.5961868762969971,delete
0.2991028428077698,-8.920442581176758,4.965107440948486,-0.0842969194054603,1.682273268699646,-0.620620846748352,delete
0.2991028428077698,-8.920442581176758,4.965107440948486,-0.1356080919504165,1.8166598081588743,-0.6169556975364685,delete
0.1244267746806144,-10.327423095703123,5.711667537689209,-0.0586413368582725,1.9412726163864136,-0.4740174412727356,delete
0.6484549045562744,-10.55474090576172,4.685146808624268,0.1148392781615257,2.071993827819824,-0.4056025743484497,delete
0.8901299238204956,-10.088139533996582,3.814159393310547,0.7623373866081238,2.288233757019043,-0.3994940817356109,delete
0.2105683833360672,-9.339186668395996,4.1347975730896,0.9419264793395996,2.337101697921753,-0.4251496791839599,delete
0.4019941985607147,-9.516255378723145,4.481756687164307,0.8197570443153381,2.588770627975464,-0.4923428893089294,delete
0.4019941985607147,-9.516255378723145,4.481756687164307,0.4104893505573272,2.814784049987793,-0.5045598149299622,delete
1.8975083827972408,-9.69093132019043,4.106083393096924,0.2761029601097107,2.886864185333252,-0.4410317242145538,delete
1.9669002294540403,-9.755537986755373,2.8043880462646484,0.1502684205770492,3.0017035007476807,-0.3530696928501129,delete
-0.4235295951366424,-10.29870891571045,2.617748022079468,0.4275930821895599,3.1751840114593506,-0.333522617816925,delete
-0.9236294627189636,-11.002198219299316,2.5914268493652344,0.7220214009284973,3.2961316108703613,-0.3689517080783844,delete
-0.9236294627189636,-11.002198219299316,2.5914268493652344,1.4623682498931885,3.472055673599243,-0.4068242609500885,delete
0.1962114423513412,-9.755537986755373,1.7515461444854736,1.6639479398727417,3.47327733039856,-0.411711037158966,delete
-0.9379864931106568,-9.20279598236084,0.1698903888463974,1.5368915796279907,3.4268531799316406,-0.5241069197654724,delete
-2.651247262954712,-10.114461898803713,-0.760917603969574,0.96147358417511,3.436626672744751,-0.6572716236114502,delete
-2.411965131759644,-10.760523796081545,-1.0839486122131348,0.5937435030937195,3.4231879711151123,-0.6646018028259277,delete
-2.342573404312134,-10.521241188049316,-2.297109842300415,0.3139754831790924,3.239933729171753,-0.5705313086509705,delete
-2.342573404312134,-10.521241188049316,-2.297109842300415,0.4251496791839599,2.996816635131836,-0.5387672781944275,delete
-4.843072891235352,-11.155338287353516,-2.763710021972656,0.5815265774726868,2.918627977371216,-0.5888567566871643,delete
-6.302694320678711,-10.250852584838867,-3.036492109298706,1.0286667346954346,2.831887722015381,-0.684148907661438,delete
-6.003591537475586,-9.174081802368164,-4.302295207977295,1.2559019327163696,2.574110269546509,-0.6303943395614624,delete
-6.455835819244385,-9.597611427307127,-5.343173027038574,1.1520578861236572,2.3615353107452397,-0.5680879354476929,delete
-6.455835819244385,-9.597611427307127,-5.343173027038574,0.3836120665073395,1.9669280052185056,-0.4251496791839599,delete
-7.597211837768555,-8.975478172302246,-4.902893543243408,0.0012216945178806,1.7567967176437378,-0.3872771561145782,delete
-7.405786037445068,-9.408578872680664,-4.953143119812012,-0.0464243926107883,1.347529053688049,-0.4337015450000763,delete
-5.802595138549805,-10.164710998535156,-4.718646049499512,0.0940704718232154,0.836860716342926,-0.3469612300395965,delete
-5.759523868560791,-9.966106414794922,-3.1824538707733154,0.1026223376393318,0.5766398310661316,-0.2516690790653229,delete
-5.759523868560791,-9.966106414794922,-3.1824538707733154,0.2052446752786636,0.258999228477478,-0.1673721522092819,delete
-5.714060306549072,-9.91585636138916,-2.1367905139923096,0.4080459475517273,0.0207688063383102,-0.0806318372488021,delete
-5.142175674438477,-9.375079154968262,-0.1938186287879943,0.4471401870250702,-0.0769667476415634,-0.0378725305199623,delete
-4.953143119812012,-8.669197082519531,0.973878800868988,0.333522617816925,-0.1698155403137207,0.0623064190149307,delete
-4.632504463195801,-8.781659126281738,1.3304094076156616,0.1270562261343002,-0.178367406129837,0.1148392781615257,delete
-4.350151538848877,-9.422935485839844,1.5242280960083008,-0.3701734542846679,-0.2223483920097351,0.1563768982887268,delete
-4.350151538848877,-9.422935485839844,1.5242280960083008,-0.6755970120429993,-0.256555825471878,0.130721315741539,delete
-4.230510234832764,-9.91585636138916,1.5361920595169067,-0.6768187284469604,-0.2528907656669616,0.0977355539798736,delete
-3.943371772766113,-9.755537986755373,1.325623631477356,-0.5008947253227234,-0.2907632887363434,0.1172826737165451,delete
-3.620340585708618,-9.856036186218262,1.8281164169311523,-0.199136197566986,-0.3188622593879699,0.1356080919504165,delete
-3.44327163696289,-10.023534774780272,2.541177749633789,-0.0818535313010215,-0.31641885638237,0.1319430023431778,delete
-3.44327163696289,-10.023534774780272,2.541177749633789,0.1111741960048675,-0.3261924386024475,0.1392731666564941,delete
-3.2159535884857178,-10.016355514526367,2.538784980773926,0.1905843466520309,-0.3225273489952087,0.1514901220798492,delete
-3.249453067779541,-9.784252166748049,2.778067111968994,0.3066453039646148,-0.3396310806274414,0.1734806150197982,delete
-3.187239646911621,-9.674181938171388,2.5938196182250977,0.3860554695129394,-0.3237490355968475,0.1881409436464309,delete
-2.8761727809906006,-9.60478973388672,2.610569477081299,0.4740174412727356,-0.3176405727863312,0.1820324808359146,delete
-2.9168508052825928,-9.83689308166504,2.9838497638702397,0.5815265774726868,-0.2455605864524841,0.2162399291992187,delete
-2.9168508052825928,-9.83689308166504,2.9838497638702397,0.6462763547897339,-0.1673721522092819,0.2516690790653229,delete
-2.754138946533203,-9.820144653320312,3.041277408599853,0.5717529654502869,-0.1698155403137207,0.3066453039646148,delete
-2.9551358222961426,-9.949356079101562,2.352144718170166,0.6120689511299133,-0.1954711079597473,0.3775035738945007,delete
-2.3712873458862305,-9.42772102355957,2.991028308868408,0.5925218462944031,-0.2663294076919555,0.4556920528411865,delete
-2.0195422172546387,-9.305686950683594,1.7994027137756348,0.494786262512207,-0.3151971697807312,0.5363238453865051,delete
-2.0195422172546387,-9.305686950683594,1.7994027137756348,0.4190412163734436,-0.3628432750701904,0.5974085927009583,delete
-1.8975083827972408,-9.183652877807615,1.887937068939209,0.4666872918605804,-0.4288147687911987,0.63283771276474,delete
-1.706082463264465,-8.49691390991211,2.210968255996704,0.5974085927009583,-0.4789042472839355,0.7183563709259033,delete
-2.244467735290528,-7.049255847930908,1.435693621635437,0.5998519659042358,-0.4288147687911987,0.7513421177864075,delete
-2.476571559906006,-6.029913425445557,0.9308080077171326,0.4886777997016907,-0.5021164417266846,0.7745543122291565,delete
-2.476571559906006,-6.029913425445557,0.9308080077171326,0.0109952501952648,-0.7195780277252197,0.8405258059501648,delete
-2.359323024749756,-6.295516490936279,1.3112668991088867,-0.416597843170166,-0.8099834322929382,0.7611156702041626,delete
-2.6249265670776367,-7.353143692016602,1.8927226066589355,-0.5241069197654724,-0.8319739699363708,0.7049177289009094,delete
-2.8929224014282227,-7.441678524017334,2.4813570976257324,-0.4520269632339477,-0.8625163435935974,0.601073682308197,delete
-2.7900311946868896,-7.3675007820129395,3.555734634399414,-0.3188622593879699,-0.8527427315711975,0.5033381581306458,delete
-3.670589685440064,-7.176074504852295,3.3092737197875977,0.2052446752786636,-0.7745543122291565,0.2809897363185882,delete
-3.670589685440064,-7.176074504852295,3.3092737197875977,0.4202629029750824,-0.5668662190437317,0.1075091138482093,delete
-4.527220726013184,-7.46799898147583,2.342573404312134,0.463022232055664,-0.4764608442783355,0.0390942245721817,delete
-4.754538536071777,-7.661818027496338,2.117647886276245,0.3286358118057251,-0.4031591713428497,-0.0940704718232154,delete
-4.563112735748291,-8.214560508728027,2.555534601211548,-0.1099525094032287,-0.4068242609500885,-0.4153760969638824,delete
-4.551148891448975,-8.791230201721191,2.5842485427856445,-0.2675510942935943,-0.3628432750701904,-0.6145123243331909,delete
-4.551148891448975,-8.791230201721191,2.5842485427856445,-0.6218425035476685,-0.261442631483078,-0.7721109390258789,delete
-5.166104316711426,-8.477770805358887,2.8833510875701904,-0.8576295375823975,-0.2247917801141739,-0.7989881634712219,delete
-5.840879917144775,-9.4660062789917,2.4981069564819336,-1.1251806020736694,-0.152711808681488,-0.8942803740501404,delete
-6.393621921539307,-10.250852584838867,3.572484016418457,-0.8576295375823975,-0.2846547961235046,-0.9590301513671876,delete
-7.125825881958008,-10.344171524047852,5.199604034423828,-0.6316159963607788,-0.3054236173629761,-0.9321528673171996,delete
-8.209774017333984,-9.413363456726074,6.65204668045044,-0.0097735561430454,-0.2834331095218658,-0.8686248064041138,delete
-8.209774017333984,-9.413363456726074,6.65204668045044,0.5668662190437317,-0.2101314514875412,-0.8026533126831055,delete
-8.717053413391113,-7.984848976135254,7.22871732711792,0.7550071477890015,-0.1771456897258758,-0.7647807598114014,delete
-7.635497093200684,-7.549355506896973,8.0350980758667,1.0030112266540527,-0.3518480062484741,-0.5815265774726868,delete
-6.5491557121276855,-8.33898639678955,8.02074146270752,0.8466342687606812,-0.4960079491138458,-0.3726168274879455,delete
-5.642275810241699,-8.623733520507812,6.561119556427002,0.7379034161567688,-0.4214845895767212,-0.3127537965774536,delete
-5.642275810241699,-8.623733520507812,6.561119556427002,0.6743753552436829,-0.2919849753379822,0.0146603342145681,delete
-5.223531246185303,-8.157133102416992,5.407779216766357,0.5668662190437317,-0.0940704718232154,0.1111741960048675,delete
-4.567898273468018,-7.925028324127197,4.900500774383545,0.1966928243637085,0.1624853760004043,0.199136197566986,delete
-4.1347975730896,-8.547162055969238,3.948157548904419,-0.1661504507064819,0.2724378705024719,0.200357899069786,delete
-3.455235719680786,-9.166903495788574,3.2614171504974365,-0.235787034034729,0.2785463333129883,0.2101314514875412,delete
-3.455235719680786,-9.166903495788574,3.2614171504974365,-0.1588202863931656,0.2467822879552841,0.2015795856714248,delete
-2.8426735401153564,-9.379864692687988,2.945564746856689,0.0183254163712263,0.2492256760597229,0.2260134816169738,delete
-2.940778970718384,-9.016156196594238,2.761317014694214,0.0574196390807628,0.2724378705024719,0.2015795856714248,delete
-3.029313325881958,-8.70508861541748,2.65842604637146,0.0232121963053941,0.2736595571041107,0.1820324808359146,delete
-3.022134780883789,-8.666803359985352,2.8977081775665283,-0.0427593067288398,0.2406738102436065,0.2040229737758636,delete
-3.079562902450561,-8.84626579284668,3.034099102020264,-0.2247917801141739,0.0928487852215766,0.2235700935125351,delete
-3.079562902450561,-8.84626579284668,3.034099102020264,-0.282211422920227,-0.0635281130671501,0.178367406129837,delete
-2.9072794914245605,-9.19561767578125,3.2518460750579834,-0.2284568697214126,-0.1417165547609329,0.1539334952831268,delete
-3.2279179096221924,-8.748159408569336,3.7232320308685294,0.0293206684291362,-0.2247917801141739,0.1185043603181839,delete
-3.5294132232666016,-8.374878883361816,4.141976356506348,0.2333436459302902,-0.258999228477478,0.0781884491443634,delete
-3.684947013854981,-8.360522270202637,4.342973232269287,0.2712161839008331,-0.282211422920227,0.0659715011715889,delete
-3.684947013854981,-8.360522270202637,4.342973232269287,0.282211422920227,-0.2712161839008331,0.0561979450285434,delete
-3.8596229553222656,-8.331808090209961,4.4961137771606445,0.2260134816169738,-0.2370087206363678,0.0561979450285434,delete
-3.926621913909912,-8.185846328735352,4.419543266296387,0.1197260618209838,-0.1343863904476165,0.0537545569241046,delete
-3.881158351898194,-8.094919204711914,4.187439441680908,0.0623064190149307,-0.0244338884949684,0.040315918624401,delete
-3.91705060005188,-8.087740898132324,4.115654945373535,0.0415376126766204,0.040315918624401,0.0232121963053941,delete
-3.919443368911743,-8.358129501342773,4.2137603759765625,0.0232121963053941,0.1612636744976043,-0.0659715011715889,delete
-3.919443368911743,-8.358129501342773,4.2137603759765625,0.1014006435871124,0.31641885638237,-0.2028012871742248,delete
-4.295116424560547,-8.358129501342773,4.910072326660156,0.1637070626020431,0.3909422159194946,-0.2577775418758392,delete
-4.823930263519287,-8.111669540405273,4.919642925262451,0.1270562261343002,0.5522059202194214,-0.2761029601097107,delete
-5.127819538116455,-8.185846328735352,4.709074974060059,-0.0525328628718853,0.6597149968147278,-0.2577775418758392,delete
-5.120640754699707,-8.501699447631836,4.412364959716797,-0.1832541674375534,0.6035171151161194,-0.2137965410947799,delete
-5.120640754699707,-8.501699447631836,4.412364959716797,-0.2687727808952331,0.5033381581306458,-0.1685938388109207,delete
-5.735595226287842,-8.980262756347656,4.141976356506348,-0.3225273489952087,0.4935645759105682,-0.152711808681488,delete
-6.027520179748535,-9.06401252746582,5.386244297027588,-0.1698155403137207,0.4801259338855743,-0.1221694499254226,delete
-6.479763507843018,-7.458428382873535,5.187639236450195,0.0244338884949684,0.4471401870250702,-0.0048867780715227,delete
-6.364907741546631,-6.874579429626465,4.295116424560547,-0.0488677769899368,0.3066453039646148,0.1075091138482093,delete
-6.364907741546631,-6.874579429626465,4.295116424560547,-0.3066453039646148,0.0708582773804664,0.3787252902984619,delete
-6.680760860443115,-8.209774017333984,2.950350284576416,-0.8588511943817139,0.0940704718232154,0.4141544103622436,delete
-6.537191867828369,-8.82951545715332,3.510270833969116,-0.9187142252922058,0.0855186134576797,0.4068242609500885,delete
-6.259624004364014,-7.010970115661621,4.646861553192139,-0.5045598149299622,0.0183254163712263,0.4324798583984375,delete
-5.857630252838135,-5.871986389160156,4.3310089111328125,-0.2968717515468597,0.0500894747674465,0.4092676639556885,delete
-5.785844802856445,-6.506085395812988,3.617947816848755,-0.1050657257437706,0.1417165547609329,0.3909422159194946,delete
-5.785844802856445,-6.506085395812988,3.617947816848755,-0.261442631483078,0.1368297785520553,0.282211422920227,delete
-5.580062389373779,-7.704888820648193,2.9934213161468506,-0.3530696928501129,0.1710372269153595,0.2553341388702392,delete
-5.343173027038574,-6.721438884735107,2.988635540008545,-0.3213056325912475,0.1685938388109207,0.2174616158008575,delete
-5.613561630249023,-5.233102798461914,3.649054527282715,0.1563768982887268,0.1795890927314758,0.0378725305199623,delete
-4.287938117980957,-7.802994728088379,3.828516006469727,0.3591781854629516,0.2235700935125351,-0.1148392781615257,delete
-4.287938117980957,-7.802994728088379,3.828516006469727,0.7024743556976318,0.21135313808918,-0.3506263196468353,delete
-2.861815929412842,-7.293323516845703,2.900100946426392,0.6071821451187134,0.1429382413625717,-0.4190412163734436,delete
-2.44067907333374,-6.786045074462891,2.3162522315979004,0.3249707520008087,0.1258345395326614,-0.4593571126461029,delete
-2.96949315071106,-7.491927623748779,2.617748022079468,-0.4092676639556885,0.1453816443681717,-0.5448757410049438,delete
-3.036492109298706,-8.870193481445312,2.9790639877319336,-0.6084038615226746,0.1966928243637085,-0.6560499668121338,delete
-1.4404792785644531,-9.853643417358398,2.675175428390503,-0.463022232055664,0.3432961404323578,-0.8637380003929138,delete
-1.4404792785644531,-9.853643417358398,2.675175428390503,0.128277912735939,0.2956500649452209,-0.9455915093421936,delete
-0.4091726541519165,-9.1716890335083,1.983649969100952,0.3665083348751068,0.3054236173629761,-0.9944592714309692,delete
-0.7250252366065979,-8.805586814880371,1.4739787578582764,0.3603998720645904,0.3115321099758148,-1.0005677938461304,delete
-0.6364907622337341,-9.272188186645508,1.7898313999176023,0.0390942245721817,0.3151971697807312,-0.966360330581665,delete
-0.4019941985607147,-10.954340934753418,2.2372891902923584,-0.1905843466520309,0.3151971697807312,-0.9236010909080504,delete
-0.4019941985607147,-10.954340934753418,2.2372891902923584,-0.3579564988613128,0.3384093642234802,-0.891836941242218,delete
-0.5024927258491516,-11.899507522583008,2.3712873458862305,-0.3469612300395965,0.3738385140895843,-0.8551861643791199,delete
-0.705882728099823,-11.447263717651367,2.2612173557281494,-0.1820324808359146,0.4080459475517273,-0.7598939538002014,delete
-0.6269195079803467,-10.82273769378662,2.007578134536743,-0.0195471122860908,0.3713951408863067,-0.6450546979904175,delete
-0.7920243144035339,-10.547561645507812,1.7252250909805298,0.0109952501952648,0.3384093642234802,-0.574196457862854,delete
-0.7920243144035339,-10.547561645507812,1.7252250909805298,-0.0818535313010215,0.2932066619396209,-0.4288147687911987,delete
-1.56251323223114,-10.810771942138672,1.710868239402771,-0.2272351831197738,0.2602209150791168,-0.3151971697807312,delete
-1.9046868085861208,-10.29870891571045,1.8999011516571045,-0.2467822879552841,0.2284568697214126,-0.2651077210903168,delete
-2.163111686706543,-10.05703353881836,2.1104695796966557,-0.2321219593286514,0.1661504507064819,-0.2015795856714248,delete
-2.060220241546631,-9.66221809387207,2.062613010406494,-0.2028012871742248,0.1331647038459777,-0.1832541674375534,delete
-2.258824586868286,-9.324830055236816,2.115255117416382,-0.1478250324726104,0.0684148892760276,-0.1331647038459777,delete
-2.258824586868286,-9.324830055236816,2.115255117416382,-0.1905843466520309,0.0097735561430454,-0.0830752253532409,delete
-2.667997360229492,-9.492327690124512,1.88075852394104,-0.2199050188064575,-0.0134386392310261,-0.0794101431965828,delete
-2.914458036422729,-9.542576789855955,1.9764715433120728,-0.2028012871742248,-0.0427593067288398,-0.0647498071193695,delete
-2.9168508052825928,-9.360722541809082,2.230110645294189,-0.1392731666564941,-0.0561979450285434,-0.0390942245721817,delete
-2.935993194580078,-9.128618240356444,2.7038896083831787,-0.1075091138482093,-0.0586413368582725,-0.0439810007810592,delete
-2.935993194580078,-9.128618240356444,2.7038896083831787,-0.0439810007810592,-0.040315918624401,-0.0830752253532409,delete
-2.9216365814208984,-9.138189315795898,2.5986053943634038,-0.0219905003905296,-0.0488677769899368,-0.0904053896665573,delete
-2.871387243270874,-9.284152030944824,2.139183282852173,-0.0549762547016143,-0.0769667476415634,-0.0952921733260154,delete
-2.988635540008545,-9.291330337524414,1.921436548233032,-0.1514901220798492,-0.100178949534893,-0.0989572554826736,delete
-2.8139593601226807,-9.511469841003418,2.2995026111602783,-0.199136197566986,-0.1050657257437706,-0.1038440242409706,delete
-2.589033842086792,-9.858428955078123,2.569891452789306,-0.2443388998508453,-0.1087308079004287,-0.1062874197959899,delete
-2.589033842086792,-9.858428955078123,2.569891452789306,-0.2247917801141739,-0.0952921733260154,-0.0965138673782348,delete
-2.849851608276367,-9.868000030517578,1.959721684455872,-0.1747023165225982,-0.0965138673782348,-0.0928487852215766,delete
-3.2829525470733643,-9.571290969848633,1.6151552200317385,-0.0500894747674465,-0.0818535313010215,-0.0830752253532409,delete
-3.373879909515381,-9.54496955871582,1.5361920595169067,0.003665083553642,-0.0806318372488021,-0.069636583328247,delete
-3.5772697925567627,-9.40379238128662,1.2586246728897097,-0.0134386392310261,-0.0879620015621185,-0.0635281130671501,delete
-3.5772697925567627,-9.40379238128662,1.2586246728897097,-0.1453816443681717,-0.1209477484226226,-0.0415376126766204,delete
-3.9840497970581055,-9.588040351867676,0.5742774605751038,-0.2076880484819412,-0.1441599577665329,-0.0390942245721817,delete
-4.589433670043945,-9.899106979370115,-0.028713870793581,-0.2382304221391677,-0.1893626451492309,-0.0537545569241046,delete
-4.811966419219971,-10.016355514526367,-0.82791668176651,-0.0415376126766204,-0.2577775418758392,-0.0781884491443634,delete
-5.233102798461914,-10.188638687133787,-2.282752752304077,0.0500894747674465,-0.310310423374176,-0.0806318372488021,delete
-6.587440490722656,-10.640881538391112,-4.027120590209961,0.0977355539798736,-0.4727957546710968,-0.0561979450285434,delete
-6.587440490722656,-10.640881538391112,-4.027120590209961,-0.0598630309104919,-0.652384877204895,-0.0329857505857944,delete
-8.025527954101562,-11.413763999938965,-6.417550563812256,-0.1539334952831268,-0.712247908115387,-0.0390942245721817,delete
-7.322037220001221,-11.511869430541992,-7.3675007820129395,-0.4324798583984375,-0.943148136138916,-0.0097735561430454,delete
-5.953342437744141,-13.284950256347656,-7.611568450927734,-0.6230642199516296,-1.1496145725250244,0.0781884491443634,delete
-5.146961212158203,-14.230116844177246,-8.444271087646484,-0.896723747253418,-1.641957402229309,0.2162399291992187,delete
-5.146961212158203,-14.230116844177246,-8.444271087646484,-0.9370396137237548,-2.208823680877685,0.445918470621109,delete
-3.751945972442627,-14.225330352783203,-8.329416275024414,-0.8588511943817139,-2.542346239089966,0.5876350998878479,delete
-2.57228422164917,-13.837693214416504,-9.554540634155272,-0.6817055344581604,-3.238712310791016,0.8112051486968994,delete
-1.739582061767578,-13.30409336090088,-11.509476661682127,-0.7476770281791687,-3.6895172595977774,0.9443698525428772,delete
1.5553346872329712,-14.155938148498535,-11.318050384521484,-0.9590301513671876,-3.905757427215576,0.9871291518211364,delete
1.5553346872329712,-14.155938148498535,-11.318050384521484,-1.414722204208374,-4.545925140380859,0.9639169573783876,delete
6.285945415496826,-16.223339080810547,-9.726823806762695,-1.594311237335205,-5.442648887634277,1.0482138395309448,delete
9.592825889587402,-18.05384635925293,-8.788837432861328,-1.6541743278503418,-5.886124134063721,1.1545013189315796,delete
12.46421241760254,-19.02772521972656,-6.888936519622803,-1.4428211450576782,-6.7913994789123535,1.4367127418518066,delete
16.534404754638672,-19.51585960388184,-3.436093330383301,-1.2473500967025757,-7.177454948425293,1.5967546701431274,delete
16.850255966186523,-15.452848434448242,6.484549045562744,-0.6511631608009338,-7.370482921600342,1.964484691619873,delete
16.850255966186523,-15.452848434448242,6.484549045562744,-0.2944283783435821,-6.925785541534424,1.9595979452133176,delete
17.048860549926758,-9.69093132019043,11.437692642211914,-0.3677300214767456,-6.443216800689697,1.94249427318573,delete
15.90987777709961,-3.969692707061768,13.28255844116211,-0.4654656052589416,-5.691874504089356,2.112309694290161,delete
14.050655364990234,0.0071784676983952,12.748958587646484,-0.3958290219306946,-4.829358100891113,1.8826313018798828,delete
12.05025577545166,-0.0765703245997428,12.043076515197754,-0.2467822879552841,-4.385883331298828,1.650509238243103,delete
12.05025577545166,-0.0765703245997428,12.043076515197754,-0.0366508327424526,-3.638206243515015,0.926044464111328,delete
8.889336585998535,-0.973878800868988,9.580862045288086,0.0244338884949684,-3.3596599102020264,0.5607577562332153,delete
4.579862117767334,-3.823730707168579,10.612168312072754,-0.1099525094032287,-2.637638568878174,-0.0464243926107883,delete
1.4093725681304932,-8.71466064453125,16.819150924682617,-0.6377245187759399,-1.483137130737305,-0.6584933400154114,delete
0.9140582084655762,-12.504892349243164,11.968899726867676,-0.6792621612548828,-1.011563062667847,-0.8539644479751587,delete
1.4093725681304932,-8.204988479614258,6.613761901855469,0.0219905003905296,0.0818535313010215,-0.6303943395614624,delete
1.4093725681304932,-8.204988479614258,6.613761901855469,0.1111741960048675,0.1734806150197982,-0.1172826737165451,delete
-0.413958340883255,-8.38684368133545,3.0149567127227783,-0.0671931952238082,0.3481829464435577,-0.1795890927314758,delete
-1.5002998113632202,-10.78684425354004,2.007578134536743,0.0757450610399246,0.6230642199516296,-0.4764608442783355,delete
1.1222338676452637,-9.554540634155272,2.926422357559204,0.3506263196468353,0.7110261917114258,-0.5717529654502869,delete
-0.114855483174324,-7.893921852111816,4.163511276245117,0.7476770281791687,0.8258654475212097,-0.4471401870250702,delete
-0.114855483174324,-7.893921852111816,4.163511276245117,0.4312581717967987,1.1435059309005735,-0.4141544103622436,delete
-3.79262375831604,-9.920641899108888,4.405186176300049,0.1148392781615257,1.3524158000946045,-0.6389462351799011,delete
-1.8903299570083616,-10.817951202392578,4.654040336608887,-0.0928487852215766,1.1740483045578003,-0.6279509663581848,delete
-0.4546363055706024,-10.24367332458496,3.0652055740356445,-0.1319430023431778,0.7757760286331177,-0.3738385140895843,delete
-1.2873386144638062,-10.291529655456545,2.825923442840576,-0.1966928243637085,0.6658235192298889,-0.2809897363185882,delete
-1.2873386144638062,-10.291529655456545,2.825923442840576,-0.0916270837187767,0.6817055344581604,-0.3078669905662536,delete
-1.871187210083008,-10.86580753326416,3.4241292476654053,0.1148392781615257,0.7183563709259033,-0.3457395434379577,delete
-0.7250252366065979,-10.23888874053955,4.503292083740234,0.5070031881332397,0.7537854909896851,-0.3408527672290802,delete
-0.1124626696109771,-9.408578872680664,4.460221290588379,0.5302154421806335,0.8258654475212097,-0.2455605864524841,delete
-0.6245267391204834,-9.650253295898438,4.35254430770874,0.3591781854629516,0.891836941242218,-0.1942494213581085,delete
0.0765703245997428,-9.710074424743652,4.453042984008789,0.0525328628718853,1.0750911235809326,-0.1808107793331146,delete
0.0765703245997428,-9.710074424743652,4.453042984008789,0.0586413368582725,1.2070342302322388,-0.1270562261343002,delete
1.196411371231079,-9.923035621643066,4.847858428955078,0.1771456897258758,1.2497934103012085,-0.1172826737165451,delete
1.8113667964935305,-9.592825889587402,5.608776092529297,0.5668662190437317,1.374406337738037,-0.130721315741539,delete
2.1415762901306152,-8.298308372497559,5.91505765914917,0.96147358417511,1.5149011611938477,-0.1966928243637085,delete
1.7922240495681765,-8.609375953674316,6.068198204040527,0.9736905097961426,1.5918679237365725,-0.2443388998508453,delete
1.7922240495681765,-8.609375953674316,6.068198204040527,0.6108472347259521,1.747023105621338,-0.3958290219306946,delete
1.9932212829589844,-8.980262756347656,6.104090690612793,0.3958290219306946,1.8349851369857788,-0.4740174412727356,delete
2.8139593601226807,-8.439485549926758,4.900500774383545,0.0745233595371246,1.9974703788757324,-0.517998456954956,delete
3.797409296035767,-10.14556884765625,3.747160196304321,-0.1038440242409706,2.091541051864624,-0.4556920528411865,delete
4.800002098083496,-12.277572631835938,3.682554006576538,0.0329857505857944,2.080545663833618,-0.3384093642234802,delete
3.4193434715271,-13.988441467285156,3.074777126312256,0.1600419729948043,2.310224294662476,0.0146603342145681,delete
3.4193434715271,-13.988441467285156,3.074777126312256,0.6426112651824951,2.629086494445801,0.1246128380298614,delete
2.407179594039917,-11.95454216003418,2.282752752304077,0.9956809878349304,2.80256724357605,0.0720799788832664,delete
2.445464611053467,-10.02592658996582,1.7467604875564575,1.1276240348815918,2.9833779335021973,0.0647498071193695,delete
1.521835207939148,-10.423135757446287,0.0239282250404357,1.1361758708953855,3.009033679962158,0.0012216945178806,delete
-0.7274181246757507,-11.124231338500977,-0.8470591902732849,0.9162708520889282,2.9821560382843018,-0.069636583328247,delete
-0.7274181246757507,-11.124231338500977,-0.8470591902732849,1.1215155124664309,2.9894862174987797,-0.1844758540391922,delete
-1.8185452222824097,-12.081361770629885,-2.2755744457244877,1.3585243225097656,3.095773935317993,-0.2052446752786636,delete
-0.2943171858787536,-11.12901782989502,-3.1800613403320312,1.4257174730300903,2.979712724685669,0.1160609796643257,delete
-0.1842473447322845,-11.889936447143556,-4.130012035369873,0.9797989726066588,2.516690492630005,0.2223483920097351,delete
-2.3018953800201416,-11.921042442321776,-3.486342430114746,0.9309312105178832,2.4165117740631104,0.2418954968452453,delete
-2.3018953800201416,-11.921042442321776,-3.486342430114746,1.240019917488098,2.245474576950073,0.2284568697214126,delete
-4.433900356292725,-11.313264846801758,-3.476771354675293,2.175837755203247,2.254026174545288,0.0244338884949684,delete
-5.079962730407715,-8.6907320022583,-4.19701099395752,2.418955087661743,2.280903577804565,-0.0268772784620523,delete
-5.060819625854492,-7.405786037445068,-3.5054850578308105,1.9046216011047363,2.0316779613494877,0.0268772784620523,delete
-5.386244297027588,-7.118647575378418,-1.931007981300354,1.4660333395004272,1.877744436264038,0.0537545569241046,delete
-6.451050281524658,-9.30329418182373,-0.4067798554897308,0.6694886088371277,1.6566176414489746,0.0757450610399246,delete
-6.451050281524658,-9.30329418182373,-0.4067798554897308,0.7024743556976318,1.4904673099517822,0.0439810007810592,delete
-7.793423175811768,-8.894121170043945,-1.3232309818267822,0.7085827589035034,1.4904673099517822,0.1466033309698104,delete
-8.973085403442383,-8.807979583740234,-1.835294842720032,1.0152281522750854,1.6028631925582886,0.1820324808359146,delete
-9.628718376159668,-8.609375953674316,0.1698903888463974,1.0262233018875122,1.3707412481307983,-0.0305423624813556,delete
-10.487741470336914,-5.697310447692871,1.3639088869094849,1.0201148986816406,1.2998830080032349,-0.3298574984073639,delete
-10.487741470336914,-5.697310447692871,1.3639088869094849,1.119072198867798,1.4220523834228516,-0.7745543122291565,delete
-11.863614082336426,-3.1752755641937256,0.969093143939972,1.0347752571105957,1.502684235572815,-0.6988092660903931,delete
-12.55274772644043,-3.218346357345581,0.3062812983989715,0.5033381581306458,1.4257174730300903,-0.5839699506759644,delete
-11.83489990234375,-5.388636112213135,1.4620146751403809,-0.1441599577665329,1.0763128995895386,-0.7403469085693359,delete
-10.990234375,-3.811766624450684,5.489135265350342,-0.2064663618803024,0.8722898364067078,-0.9284878373146056,delete
-9.193224906921388,-1.495514154434204,7.647461414337158,-0.63283771276474,0.5864133238792419,-1.0091196298599243,delete
-9.193224906921388,-1.495514154434204,7.647461414337158,-0.9736905097961426,0.4740174412727356,-0.6193991303443909,delete
-7.22871732711792,-5.9198431968688965,7.704888820648193,-0.7916580438613892,0.1050657257437706,-0.4361449182033539,delete
-6.661618232727051,-9.753145217895508,6.508477687835693,0.0122169442474842,-0.0610847249627113,-0.4960079491138458,delete
-6.111269474029541,-8.528019905090332,4.603790760040283,0.155155211687088,0.2089097648859024,-0.2052446752786636,delete
-6.9511494636535645,-8.49691390991211,3.050848960876465,0.7171346545219421,0.2724378705024719,-0.130721315741539,delete
-6.9511494636535645,-8.49691390991211,3.050848960876465,0.5632011890411377,0.4288147687911987,-0.0586413368582725,delete
-6.558726787567139,-10.578668594360352,2.029113531112671,0.1979145109653473,0.3823903799057007,0.0610847249627113,delete
-5.709274768829346,-9.556933403015137,1.9094725847244265,-0.0085518611595034,0.0830752253532409,0.2553341388702392,delete
-5.398207664489746,-8.798408508300781,1.557727575302124,0.1404948681592941,-0.0476460866630077,0.3261924386024475,delete
-4.579862117767334,-8.319844245910645,1.959721684455872,0.2467822879552841,-0.1478250324726104,0.3310791850090027,delete
-4.579862117767334,-8.319844245910645,1.959721684455872,0.2137965410947799,-0.3506263196468353,0.2528907656669616,delete
-4.122833251953125,-7.645068168640137,2.749353408813477,-0.2797680497169494,-0.3872771561145782,0.2980934381484985,delete
-4.424329280853272,-7.448856830596924,3.7232320308685294,-0.5131116509437561,-0.3176405727863312,0.2932066619396209,delete
-4.53200626373291,-7.082754611968994,4.316651821136475,-0.6462763547897339,-0.2528907656669616,0.2162399291992187,delete
-4.587040901184082,-7.501499176025391,4.59421968460083,-0.4972296357154846,-0.2651077210903168,0.1637070626020431,delete
-4.740181922912598,-8.073383331298828,4.814359188079834,-0.1502684205770492,-0.2773246467113495,0.0525328628718853,delete
-4.740181922912598,-8.073383331298828,4.814359188079834,0.0390942245721817,-0.2370087206363678,-0.0244338884949684,delete
-5.000998973846436,-7.99681282043457,4.333401679992676,0.0207688063383102,-0.1771456897258758,-0.0354291386902332,delete
-5.517848491668701,-8.166703224182129,3.907479047775269,-0.1331647038459777,-0.0122169442474842,0.0012216945178806,delete
-5.536991596221924,-8.291130065917969,3.297309637069702,-0.2247917801141739,0.0977355539798736,0.0488677769899368,delete
-5.582455158233643,-8.798408508300781,2.75174617767334,-0.2235700935125351,0.1185043603181839,0.0647498071193695,delete
-5.582455158233643,-8.798408508300781,2.75174617767334,-0.1136175915598869,0.1160609796643257,0.0525328628718853,delete
-5.077569961547852,-8.683552742004395,2.6153552532196045,-0.0219905003905296,0.0806318372488021,0.0305423624813556,delete
-4.72582483291626,-8.197811126708984,2.6081764698028564,0.0891837030649185,0.031764056533575,0.0537545569241046,delete
-4.589433670043945,-7.649853706359863,2.63449764251709,0.0928487852215766,-0.0061084721237421,0.1246128380298614,delete
-4.467400074005127,-7.075576305389404,2.8139593601226807,0.0415376126766204,-0.0452026948332786,0.175924003124237,delete
-4.713860511779785,-6.293124198913574,2.7972097396850586,-0.0390942245721817,-0.0928487852215766,0.1832541674375534,delete
-4.713860511779785,-6.293124198913574,2.7972097396850586,-0.1404948681592941,-0.0928487852215766,0.1050657257437706,delete
-5.000998973846436,-7.015756130218506,3.084348201751709,-0.1954711079597473,-0.0916270837187767,0.0390942245721817,delete
-5.125426292419434,-7.994420051574707,3.38105845451355,-0.333522617816925,-0.0916270837187767,-0.1026223376393318,delete
-5.156532764434815,-9.109475135803224,3.572484016418457,-0.3445178270339966,-0.0183254163712263,-0.2101314514875412,delete
-5.154139995574951,-9.279366493225098,3.881158351898194,-0.2968717515468597,0.0329857505857944,-0.261442631483078,delete
-5.154139995574951,-9.279366493225098,3.881158351898194,-0.2235700935125351,0.0439810007810592,-0.175924003124237,delete
-5.209175109863281,-9.241080284118652,3.4672000408172607,-0.1368297785520553,0.0671931952238082,-0.1478250324726104,delete
-4.974678039550781,-8.793622970581055,3.2997026443481445,0.0268772784620523,0.040315918624401,-0.0671931952238082,delete
-4.790431022644043,-7.992027282714844,3.249453067779541,0.1050657257437706,-0.0024433890357613,-0.0061084721237421,delete
-4.907679080963135,-7.769494533538818,3.1250264644622803,0.1050657257437706,-0.007330167107284,0.0158820282667875,delete
-4.919642925262451,-7.527820110321045,3.1728827953338623,0.0916270837187767,0.0513111688196659,0.0012216945178806,delete
-4.919642925262451,-7.527820110321045,3.1728827953338623,0.0464243926107883,0.0928487852215766,-0.0684148892760276,delete
-4.996213912963867,-7.652246475219727,3.2159535884857178,0.031764056533575,0.1417165547609329,-0.1392731666564941,delete
-5.094319343566895,-7.8819580078125,3.074777126312256,0.0219905003905296,0.1563768982887268,-0.1869192570447921,delete
-5.151747226715088,-7.98963451385498,2.9838497638702397,-0.0439810007810592,0.1832541674375534,-0.2296785563230514,delete
-5.201996326446533,-8.360522270202637,3.1992037296295166,-0.1136175915598869,0.2382304221391677,-0.2443388998508453,delete
-5.201996326446533,-8.360522270202637,3.1992037296295166,-0.129499614238739,0.2455605864524841,-0.2284568697214126,delete
-5.118247985839844,-8.408378601074219,3.170490026473999,-0.0488677769899368,0.2748812437057495,-0.2382304221391677,delete
-5.182853698730469,-8.331808090209961,3.294916868209839,0.0378725305199623,0.2968717515468597,-0.2932066619396209,delete
-5.295316696166992,-8.080562591552734,3.2518460750579834,0.0733016654849052,0.2761029601097107,-0.3200839459896087,delete
-5.187639236450195,-7.544569969177246,3.7184462547302246,0.1478250324726104,0.2418954968452453,-0.3762818872928619,delete
-5.187639236450195,-7.544569969177246,3.7184462547302246,0.1795890927314758,0.3591781854629516,-0.5289937257766724,delete
-5.374279499053955,-7.709674835205078,3.7950167655944815,0.3726168274879455,0.2932066619396209,-0.471574068069458,delete
-5.730810642242432,-7.714460372924805,3.4025940895080566,0.3665083348751068,0.4801259338855743,-0.5057815313339233,delete
-6.7310099601745605,-7.661818027496338,3.778266668319702,0.3457395434379577,0.471574068069458,-0.4544703662395477,delete
-7.288537979125977,-7.9728851318359375,4.311866760253906,0.2675510942935943,0.4972296357154846,-0.3542913794517517,delete
-7.396214485168457,-7.202396392822266,4.357330322265625,0.4263713657855987,0.5033381581306458,-0.2712161839008331,delete
-7.396214485168457,-7.202396392822266,4.357330322265625,0.4898994863033294,0.5534276366233826,-0.175924003124237,delete
-9.468399047851562,-4.680361270904541,4.677968502044678,0.6975875496864319,0.365286648273468,0.1123958900570869,delete
-10.834701538085938,-4.828716278076172,4.570291519165039,0.730573296546936,0.0904053896665573,0.3249707520008087,delete
-10.461421012878418,-4.910072326660156,4.122833251953125,0.5277720093727112,-0.0452026948332786,0.3640649616718292,delete
-10.155139923095703,-4.654040336608887,3.7567315101623535,0.0794101431965828,-0.2748812437057495,0.3054236173629761,delete
-10.155139923095703,-4.654040336608887,3.7567315101623535,-0.2235700935125351,-0.3042019307613373,0.2455605864524841,delete
-10.188638687133787,-4.031906127929688,3.2853453159332275,-0.6878139972686768,-0.256555825471878,0.155155211687088,delete
-10.28913688659668,-4.015156269073486,2.914458036422729,-1.2644537687301636,-0.1979145109653473,0.1588202863931656,delete
-9.791430473327637,-5.149354457855225,2.830709218978882,-1.40617036819458,-0.1905843466520309,0.0525328628718853,delete
-9.920641899108888,-7.082754611968994,2.5363922119140625,-1.192373752593994,-0.1111741960048675,-0.21135313808918,delete
-9.580862045288086,-6.477370738983154,1.940579175949097,-0.7806627750396729,-0.0085518611595034,-0.3237490355968475,delete
-9.580862045288086,-6.477370738983154,1.940579175949097,-0.6365028619766235,-0.0048867780715227,-0.4361449182033539,delete
-8.056633949279785,-4.833501815795898,1.117448091506958,-0.3115321099758148,-0.0390942245721817,-0.891836941242218,delete
-6.338587284088135,-6.10887622833252,1.7132610082626345,0.0794101431965828,-0.0574196390807628,-1.382958173751831,delete
-2.256431579589844,-7.46799898147583,4.149154186248779,0.3005368411540985,-0.1062874197959899,-1.5796509981155396,delete
1.4069796800613403,-7.511070251464844,4.122833251953125,0.310310423374176,0.0195471122860908,-2.048781633377075,delete
1.4069796800613403,-7.511070251464844,4.122833251953125,0.1722589135169983,0.1368297785520553,-2.2210404872894287,delete
4.972285747528076,-10.28195858001709,1.6965112686157229,-1.2180293798446655,-0.1417165547609329,-2.047559976577759,delete
9.241080284118652,-12.983454704284668,-1.1365907192230225,-1.998692274093628,-0.5302154421806335,-1.830098390579224,delete
14.794821739196776,-18.367305755615234,-1.06480610370636,-1.7885607481002808,-0.2699944972991943,-1.4587032794952393,delete
13.904691696166992,-18.702301025390625,0.1411765366792678,-0.2651077210903168,0.5570926666259766,-1.3084348440170288,delete
6.786045074462891,-13.698909759521484,-0.0095712905749678,1.534448266029358,1.0592091083526611,-1.3108781576156616,delete
6.786045074462891,-13.698909759521484,-0.0095712905749678,1.5991979837417605,1.0592091083526611,-1.0934165716171265,delete
1.84965181350708,-9.408578872680664,0.6125625967979431,0.7488986849784851,0.8356390595436096,-0.5595360994338989,delete
-0.794417142868042,-7.714460372924805,1.5026925802230835,0.3432961404323578,0.6181774139404297,-0.445918470621109,delete
-2.5124638080596924,-7.515855312347412,1.2538390159606934,0.0256555844098329,0.3261924386024475,-0.4837909936904907,delete
-2.038684844970703,-8.434700012207031,2.050648927688598,0.1417165547609329,-0.0305423624813556,-0.5118899941444397,delete
-2.038684844970703,-8.434700012207031,2.050648927688598,0.1490467190742492,-0.2174616158008575,-0.4043808877468109,delete
-0.7561319470405579,-8.484949111938477,2.5842485427856445,0.040315918624401,-0.2101314514875412,-0.287098228931427,delete
-1.277767300605774,-9.4660062789917,2.933600425720215,-0.2382304221391677,-0.0171037223190069,-0.2406738102436065,delete
-2.057827472686768,-10.514062881469728,2.967100143432617,-0.3347443044185638,0.0427593067288398,-0.2467822879552841,delete
-2.311466693878174,-10.657631874084473,2.376072883605957,-0.388498842716217,0.1246128380298614,-0.256555825471878,delete
-2.311466693878174,-10.657631874084473,2.376072883605957,-0.2724378705024719,0.2040229737758636,-0.2699944972991943,delete
-2.799602746963501,-10.559525489807127,1.6654045581817627,-0.2516690790653229,0.2333436459302902,-0.2467822879552841,delete
-3.421736478805542,-10.571491241455078,1.557727575302124,-0.2846547961235046,0.2333436459302902,-0.1649287492036819,delete
-3.230310440063477,-10.904091835021973,1.526620864868164,-0.2956500649452209,0.1893626451492309,-0.1197260618209838,delete
-3.16331148147583,-11.016555786132812,0.8877372145652771,-0.2834331095218658,0.1221694499254226,-0.0452026948332786,delete
-3.2446675300598145,-11.164910316467283,0.2967100143432617,-0.1771456897258758,0.0097735561430454,-0.0378725305199623,delete
-3.2446675300598145,-11.164910316467283,0.2967100143432617,-0.1050657257437706,-0.0525328628718853,-0.0280989725142717,delete
-2.9766712188720703,-11.239087104797363,0.1674975752830505,-0.0146603342145681,-0.1820324808359146,0.0305423624813556,delete
-2.746960401535034,-10.918450355529783,-0.2081755697727203,-0.0097735561430454,-0.2663294076919555,0.1050657257437706,delete
-2.912065029144287,-10.67916774749756,-0.380458801984787,-0.0280989725142717,-0.2944283783435821,0.1380514800548553,delete
-3.194417953491211,-10.597811698913574,-1.0456634759902954,-0.0549762547016143,-0.365286648273468,0.2296785563230514,delete
-3.194417953491211,-10.597811698913574,-1.0456634759902954,-0.1417165547609329,-0.4679089784622192,0.2809897363185882,delete
-3.524627923965454,-10.767702102661133,-1.6319050788879397,-0.1856975704431533,-0.52655029296875,0.2895416021347046,delete
-3.881158351898194,-10.480563163757324,-2.514856576919556,-0.1942494213581085,-0.6377245187759399,0.2797680497169494,delete
-4.500899314880371,-10.490135192871094,-3.2614171504974365,-0.2577775418758392,-0.7281299233436584,0.2919849753379822,delete
-4.811966419219971,-10.916057586669922,-4.381258487701416,-0.439810037612915,-0.9590301513671876,0.3396310806274414,delete
-4.47697114944458,-11.653045654296877,-4.445864677429199,-0.4886777997016907,-1.268118977546692,0.3701734542846679,delete
-4.47697114944458,-11.653045654296877,-4.445864677429199,-0.4556920528411865,-1.4721418619155884,0.4104893505573272,delete
-3.5605196952819824,-12.40439224243164,-4.132404804229736,-0.3249707520008087,-1.858197331428528,0.5241069197654724,delete
-2.868994235992432,-12.693923950195312,-4.048655986785889,-0.2150182276964187,-2.1941633224487305,0.6401678919792175,delete
-2.057827472686768,-12.26321506500244,-4.137190341949463,-0.2174616158008575,-2.37741756439209,0.7207997441291809,delete
-1.007378339767456,-12.210573196411133,-4.838287353515625,-0.2125748395919799,-2.7720248699188232,0.836860716342926,delete
-1.007378339767456,-12.210573196411133,-4.838287353515625,-0.152711808681488,-2.9748260974884038,0.8698464632034302,delete
-0.2440679222345352,-12.55274772644043,-4.130012035369873,0.0183254163712263,-3.404862403869629,0.9248227477073668,delete
0.6891329884529114,-12.507284164428713,-2.6967110633850098,-0.0109952501952648,-3.814130306243897,1.0372185707092283,delete
1.660618782043457,-11.973685264587402,-2.1822540760040283,-0.2150182276964187,-3.9998278617858887,1.1251806020736694,delete
2.5052852630615234,-12.16989517211914,-3.0173492431640625,-0.5522059202194214,-4.371222972869873,1.187487006187439,delete
4.218546390533447,-12.134003639221191,-3.192025184631348,-0.3909422159194946,-4.877004623413086,1.2693406343460083,delete
4.218546390533447,-12.134003639221191,-3.192025184631348,-0.1258345395326614,-5.1543288230896,1.3524158000946045,delete
7.188039302825928,-12.602996826171877,0.0669990330934524,0.4080459475517273,-5.6051344871521,1.5833160877227783,delete
9.772287368774414,-11.19362449645996,3.579662799835205,0.6865922808647156,-5.471969604492188,1.7983342409133911,delete
10.52841854095459,-7.109076023101807,6.147161483764648,0.6780403852462769,-5.263059616088867,1.806886076927185,delete
9.480363845825195,-4.697111129760742,9.035298347473145,0.2541124522686004,-4.378552913665772,1.6028631925582886,delete
9.480363845825195,-4.697111129760742,9.035298347473145,-0.0415376126766204,-3.732276678085327,1.4733635187149048,delete
7.010970115661621,-4.110869407653809,10.578668594360352,-0.4019374847412109,-2.494700193405152,1.2180293798446655,delete
4.814359188079834,-3.2997026443481445,11.102697372436523,-0.5412106513977051,-1.715259075164795,0.9162708520889282,delete
2.957528829574585,-3.4241292476654053,10.55474090576172,-0.6279509663581848,-1.4758068323135376,0.7415685653686523,delete
1.430907964706421,-4.216153621673584,10.451848983764648,-0.6621583700180054,-1.1972606182098389,0.3286358118057251,delete
0.6795615553855896,-6.305087566375732,9.987641334533691,-0.4605787992477417,-1.147171139717102,-0.0537545569241046,delete
0.6795615553855896,-6.305087566375732,9.987641334533691,-0.3677300214767456,-1.1312891244888306,-0.1673721522092819,delete
0.9571290016174316,-7.518248558044434,8.918049812316895,-0.2541124522686004,-0.9272661209106444,-0.2968717515468597,delete
0.8422735333442688,-8.2695951461792,7.874779224395752,-0.2516690790653229,-0.7525637745857239,-0.3542913794517517,delete
-0.4977070987224579,-8.831908226013184,6.733402729034424,-0.2675510942935943,-0.3225273489952087,-0.4605787992477417,delete
-1.6462620496749878,-9.434900283813477,6.362515449523926,-0.2089097648859024,-0.0635281130671501,-0.5717529654502869,delete
-1.6462620496749878,-9.434900283813477,6.362515449523926,-0.1038440242409706,-0.0378725305199623,-0.5998519659042358,delete
-1.674975872039795,-10.195816040039062,5.290531158447266,0.1270562261343002,0.0183254163712263,-0.5766398310661316,delete
-1.4835500717163086,-10.207781791687012,4.225724697113037,0.235787034034729,0.0989572554826736,-0.494786262512207,delete
-1.5385849475860596,-10.16710376739502,3.768695831298828,0.2089097648859024,0.1319430023431778,-0.448361873626709,delete
-1.4452648162841797,-10.6504545211792,3.7567315101623535,0.1417165547609329,0.1502684205770492,-0.3494046330451965,delete
-1.4452648162841797,-10.6504545211792,3.7567315101623535,0.1111741960048675,0.1111741960048675,-0.2846547961235046,delete
-0.5000999569892883,-10.887343406677246,3.675375461578369,0.1466033309698104,0.0586413368582725,-0.1343863904476165,delete
-0.3996013700962066,-10.399208068847656,3.383451223373413,0.2675510942935943,0.1038440242409706,-0.100178949534893,delete
-1.3304094076156616,-10.131211280822754,3.201596736907959,0.3677300214767456,0.155155211687088,-0.1038440242409706,delete
-1.2370892763137815,-9.33440113067627,3.373879909515381,0.3994940817356109,0.129499614238739,-0.0586413368582725,delete
-0.8853443264961243,-8.85105037689209,3.653840303421021,0.1441599577665329,0.0561979450285434,-0.0134386392310261,delete
-0.8853443264961243,-8.85105037689209,3.653840303421021,0.0122169442474842,0.0525328628718853,-0.0134386392310261,delete
-1.4644075632095337,-9.401400566101074,3.759124279022217,-0.0146603342145681,0.0476460866630077,-0.031764056533575,delete
-1.277767300605774,-9.489934921264648,3.488735675811768,0.0879620015621185,0.003665083553642,-0.0061084721237421,delete
-0.7441678047180176,-9.31765079498291,3.649054527282715,0.1075091138482093,-0.0109952501952648,0.003665083553642,delete
-0.7130610942840576,-9.253045082092283,3.912264823913574,0.0879620015621185,-0.007330167107284,0.0232121963053941,delete
-0.7130610942840576,-9.253045082092283,3.912264823913574,0.0635281130671501,0.0097735561430454,0.0354291386902332,delete
-1.0959126949310305,-9.049654960632324,3.919443368911743,0.0476460866630077,0.0244338884949684,0.0293206684291362,delete
-1.325623631477356,-8.94676399230957,3.6562328338623047,0.0586413368582725,0.0061084721237421,0.0244338884949684,delete
-1.1700903177261353,-8.925228118896484,3.749552965164185,0.0610847249627113,-0.0061084721237421,0.0183254163712263,delete
-1.062413215637207,-9.166903495788574,3.799802303314209,0.0219905003905296,-0.0134386392310261,0.0085518611595034,delete
-1.2562319040298462,-9.20040225982666,4.022334575653076,0.0549762547016143,-0.0012216945178806,-0.0122169442474842,delete
-1.2562319040298462,-9.20040225982666,4.022334575653076,0.0794101431965828,-0.007330167107284,-0.0134386392310261,delete
-0.935593605041504,-9.346364974975586,4.405186176300049,0.0769667476415634,-0.0427593067288398,0.0158820282667875,delete
-0.6867401003837585,-9.241080284118652,4.25922441482544,0.0720799788832664,-0.0390942245721817,0.0378725305199623,delete
-1.0049854516983032,-8.994620323181152,4.043870449066162,0.0488677769899368,-0.0097735561430454,0.0513111688196659,delete
-1.4452648162841797,-8.901299476623535,3.976871252059937,0.031764056533575,0.0195471122860908,0.0293206684291362,delete
-1.4452648162841797,-8.901299476623535,3.976871252059937,0.031764056533575,0.0207688063383102,0.007330167107284,delete
-1.1341978311538696,-9.061619758605955,4.319044589996338,0.0439810007810592,0.0219905003905296,-0.0097735561430454,delete
-0.8422735333442688,-8.918049812316895,4.409972190856934,0.0354291386902332,0.0439810007810592,0.0109952501952648,delete
-0.5814558863639832,-9.15733242034912,4.534398555755615,0.0354291386902332,0.0525328628718853,0.0305423624813556,delete
-0.6484549045562744,-8.853443145751953,4.321437358856201,0.0867403075098991,0.0952921733260154,0.0354291386902332,delete
-0.6484549045562744,-8.853443145751953,4.321437358856201,0.0745233595371246,0.1258345395326614,0.0268772784620523,delete
-0.7178468108177185,-8.688338279724121,4.326223373413086,-0.0342074446380138,0.1612636744976043,0.0256555844098329,delete
-0.4402793645858764,-8.86780071258545,4.364508152008057,-0.1062874197959899,0.1966928243637085,0.0171037223190069,delete
-0.4450649619102478,-8.927621841430664,4.649254322052002,-0.0940704718232154,0.235787034034729,-0.0085518611595034,delete
-0.4570291042327881,-9.104689598083496,4.776073932647705,-0.0525328628718853,0.310310423374176,-0.0329857505857944,delete
-0.2321037948131561,-9.3128662109375,4.713860511779785,0.0171037223190069,0.3836120665073395,-0.0305423624813556,delete
-0.2321037948131561,-9.3128662109375,4.713860511779785,0.0183254163712263,0.4153760969638824,-0.0207688063383102,delete
0.028713870793581,-9.22433090209961,4.7952165603637695,-0.0794101431965828,0.4886777997016907,0.0207688063383102,delete
0.2584248483181,-9.28893756866455,4.869394302368164,-0.1771456897258758,0.5876350998878479,0.0561979450285434,delete
0.4618147313594818,-9.23390293121338,4.898108005523682,-0.1844758540391922,0.6462763547897339,0.0671931952238082,delete
0.5670989155769348,-8.889336585998535,5.182853698730469,-0.1832541674375534,0.7745543122291565,0.0659715011715889,delete
0.5670989155769348,-8.889336585998535,5.182853698730469,-0.1966928243637085,0.8197570443153381,0.0671931952238082,delete
